name,behave,evaluation,number,cond,situation,reason,propose,ending,trials.thisRepN,trials.thisTrialN,trials.thisN,trials.thisIndex,image.started,mouse_4.started,mouse_4.x,mouse_4.y,mouse_4.leftButton,mouse_4.midButton,mouse_4.rightButton,mouse_4.time,key_resp.started,image_2.started,key_resp.keys,key_resp.rt,back.started,mouse.started,mouse.x,mouse.y,mouse.leftButton,mouse.midButton,mouse.rightButton,mouse.time,predictp.started,mouse_2.started,mouse_2.x,mouse_2.y,mouse_2.leftButton,mouse_2.midButton,mouse_2.rightButton,mouse_2.time,predictp_2.started,mouse_3.started,mouse_3.x,mouse_3.y,mouse_3.leftButton,mouse_3.midButton,mouse_3.rightButton,mouse_3.time,text.started,predictp_3.started,slider.started,text_2.started,text_3.started,text_4.started,slider.response,slider.rt,text_6.started,text_6.stopped,text_5.started,text_5.stopped,key_resp_6.started,key_resp_6.stopped,key_resp_6.keys,key_resp_2.started,key_resp_2.stopped,image_3.started,image_3.stopped,key_resp_2.keys,predictp_2.stopped,mouse_3.stopped,predictp_3.stopped,text.stopped,key_resp_2.rt,key_resp_6.rt,participant,session,randomization,date,expName,psychopyVersion,frameRate,
,,,,,,,,,,,,,15.15869930000008,2.390000008745119e-05,[0.05694444444444444],[-0.2152777777777778],[1],[0],[0],[7.431846600000426],,,,,,,,,,,,,,,,,,,,,,,,,,,,,,,,,,,,,,,,,,,,,,,,,,,,,,,101,1,-1,2023-02-20_10h13.31.440,Moral_Emotion_Task,2022.2.4,None,
,,,,,,,,,,,,,,,,,,,,,22.548147299999982,22.548147299999982,s,38.124195699999746,,,,,,,,,,,,,,,,,,,,,,,,,,,,,,,,,,,,,,,,,,,,,,,,,,,101,1,-1,2023-02-20_10h13.31.440,Moral_Emotion_Task,2022.2.4,None,
唐静,唐静让妹妹在桌边玩。唐静的妹妹,唐静让妹妹在桌边玩这种行为是：,13,goodPhappyE,materials/situations/13.PNG,materials/happyreason/13.PNG,materials/goodpropose/13.PNG,materials/happyending/13.PNG,0,0,0,0,,,,,,,,,,,,,60.74408679999988,0.05947669999977734,[],[],[],[],[],[],70.69998540000006,0.014298499999767955,[],[],[],[],[],[],80.70149899999979,0.018066499999804364,[],[],[],[],[],[],83.04926960000012,86.00181620000012,88.31218919999992,88.31218919999992,88.31218919999992,88.31218919999992,1.9895833333333335,10.932420000000093,99.22965299999987,103.2318922999998,103.2318922999998,103.2318922999998,103.2318922999998,103.2318922999998,None,103.2318922999998,103.2318922999998,103.2318922999998,103.2318922999998,None,,,,,,,101,1,-1,2023-02-20_10h13.31.440,Moral_Emotion_Task,2022.2.4,None,
舒玲,舒玲把车借给同学。舒玲的同学,舒玲把自行车借给同学这种行为是：,12,badPsadE,materials/situations/12.PNG,materials/sadreason/12.PNG,materials/badpropose/12.PNG,materials/sadending/12.PNG,0,1,1,1,,,,,,,,,,,,,103.2318922999998,0.008180199999969773,[-0.2423611111111111],[-0.1875],[1],[0],[0],[4.9710070000001],108.2145317999998,0.009291899999880116,[-0.21666666666666667],[-0.13541666666666666],[1],[0],[0],[1.6216627000003427],109.84737099999984,0.008548900000278081,[],[],[],[],[],[],112.15977669999984,115.14919220000002,117.48834880000004,117.48834880000004,117.48834880000004,117.48834880000004,1,6.192574400000012,123.64816440000004,128.65099250000003,128.65099250000003,128.65099250000003,128.65099250000003,128.65099250000003,None,128.65099250000003,128.65099250000003,128.65099250000003,128.65099250000003,None,,,,,,,101,1,-1,2023-02-20_10h13.31.440,Moral_Emotion_Task,2022.2.4,None,
唐巧,唐巧让男孩走进冒烟的房子。男孩,唐巧让男孩走进冒烟房子这种行为是：,24,badPhappyE,materials/situations/24.PNG,materials/happyreason/24.PNG,materials/badpropose/24.PNG,materials/happyending/24.PNG,0,2,2,2,,,,,,,,,,,,,128.65099250000003,0.011716900000010355,[0.05763888888888889],[-0.19375],[1],[0],[0],[3.762907300000279],132.42747259999987,0.008305399999699148,[0.05763888888888889],[-0.16875],[1],[0],[0],[4.561177099999895],136.9952248999998,0.008737999999993917,[],[],[],[],[],[],139.29833740000004,142.29821970000012,144.60332419999986,144.60332419999986,144.60332419999986,144.60332419999986,1.96875,5.971531799999866,150.5799406000001,156.58927549999999,156.58927549999999,156.58927549999999,156.58927549999999,156.58927549999999,None,156.58927549999999,156.58927549999999,156.58927549999999,156.58927549999999,None,,,,,,,101,1,-1,2023-02-20_10h13.31.440,Moral_Emotion_Task,2022.2.4,None,
刘晓,刘晓把芝麻放进菜里。客人,刘晓把芝麻放进菜里这种行为是：,11,goodPhappyE,materials/situations/11.PNG,materials/happyreason/11.PNG,materials/goodpropose/11.PNG,materials/happyending/11.PNG,0,3,3,3,,,,,,,,,,,,,156.58927549999999,0.009350799999992887,[-0.09027777777777778],[-0.10972222222222222],[1],[0],[0],[5.56619290000026],162.16406529999995,0.010083499999836931,[-0.09027777777777778],[-0.10972222222222222],[1],[0],[0],[2.9673892000000706],165.14319539999997,0.008400300000175775,[-0.08125],[-0.10069444444444445],[1],[0],[0],[2.108937099999821],167.2885056,170.26177719999987,172.57115750000003,172.57115750000003,172.57115750000003,172.57115750000003,6.0,9.558296500000324,182.1298144000002,185.13176479999993,185.13176479999993,185.13176479999993,185.13176479999993,185.13176479999993,None,185.13176479999993,185.13176479999993,185.13176479999993,185.13176479999993,None,,,,,,,101,1,-1,2023-02-20_10h13.31.440,Moral_Emotion_Task,2022.2.4,None,
张克,张克邀请朋友吃饼干。他的朋友,张克邀请他的朋友吃饼干这种行为是：,22,badPhappyE,materials/situations/22.PNG,materials/happyreason/22.PNG,materials/badpropose/22.PNG,materials/happyending/22.PNG,0,4,4,4,,,,,,,,,,,,,185.13176479999993,0.007943799999793555,[0.26666666666666666],[-0.19166666666666668],[1],[0],[0],[2.895271000000321],188.03392140000005,0.009251099999801227,[0.26666666666666666],[-0.19166666666666668],[1],[0],[0],[2.3730851999998777],190.41789389999985,0.009397599999829254,[],[],[],[],[],[],192.74618210000017,195.73126559999992,198.03177800000003,198.03177800000003,198.03177800000003,198.03177800000003,6.994791666666666,4.709049799999775,202.7389321999999,206.7453042000002,206.7453042000002,206.7453042000002,206.7453042000002,206.7453042000002,None,206.7453042000002,206.7453042000002,206.7453042000002,206.7453042000002,None,192.74618210000017,2.299626399999852,,,,,101,1,-1,2023-02-20_10h13.31.440,Moral_Emotion_Task,2022.2.4,None,
郑宇,郑宇没有阻止朋友开枪。子弹射中了,郑宇没有阻止朋友开枪这种行为：,26,goodPhappyE,materials/situations/26.PNG,materials/happyreason/26.PNG,materials/goodpropose/26.PNG,materials/happyending/26.PNG,0,5,5,5,,,,,,,,,,,,,206.7453042000002,0.010943400000087422,[0.22291666666666668],[-0.11875],[1],[0],[0],[2.8981251999998676],209.65016659999992,0.007761500000015076,[0.25625],[-0.08402777777777778],[1],[0],[0],[4.6586818999999196],214.3214063999999,0.00939299999981813,[],[],[],[],[],[],216.62833390000014,219.6335027,221.93996359999983,221.93996359999983,221.93996359999983,221.93996359999983,4.989583333333334,6.659571500000311,228.59262910000007,232.60639270000001,232.60639270000001,232.60639270000001,232.60639270000001,232.60639270000001,None,232.60639270000001,232.60639270000001,232.60639270000001,232.60639270000001,None,,,,,,,101,1,-1,2023-02-20_10h13.31.440,Moral_Emotion_Task,2022.2.4,None,
杨乐,"杨乐跳过这一段铁轨的工作。这段铁轨开始运营,",杨乐跳过这一段铁轨工作这种行为是：,17,badPsadE,materials/situations/17.PNG,materials/sadreason/17.PNG,materials/badpropose/17.PNG,materials/sadending/17.PNG,0,6,6,6,,,,,,,,,,,,,232.60639270000001,0.009744299999965733,[0.03958333333333333],[-0.06041666666666667],[1],[0],[0],[1.6553513000003477],234.26630410000007,0.00726570000006177,[0.004861111111111111],[-0.034027777777777775],[1],[0],[0],[3.1257510999998885],237.4035176000002,0.008283200000278157,[],[],[],[],[],[],239.73808980000013,242.70842399999992,245.0179452000002,245.0179452000002,245.0179452000002,245.0179452000002,2.046875,9.544497200000023,254.56459769999992,259.5661441000002,259.5661441000002,259.5661441000002,259.5661441000002,259.5661441000002,None,259.5661441000002,259.5661441000002,259.5661441000002,259.5661441000002,None,,,,,,,101,1,-1,2023-02-20_10h13.31.440,Moral_Emotion_Task,2022.2.4,None,
胡梅,胡梅把新降落伞给顾客。顾客使用这把降落伞时,胡梅把新降落伞给顾客这种行为：,38,goodPhappyE,materials/situations/38.PNG,materials/happyreason/38.PNG,materials/goodpropose/38.PNG,materials/happyending/38.PNG,0,7,7,7,,,,,,,,,,,,,259.5661441000002,0.009730400000080408,[0.15694444444444444],[-0.07708333333333334],[1],[0],[0],[3.2708714000000327],262.8479788999998,0.010059300000193616,[0.15694444444444444],[-0.07708333333333334],[1],[0],[0],[3.987348199999815],266.8450226,0.006627000000207772,[],[],[],[],[],[],269.18208790000017,272.1514578000001,274.45353609999984,274.45353609999984,274.45353609999984,274.45353609999984,6.166666666666666,8.367795900000147,282.8245477999999,288.83930899999996,288.83930899999996,288.83930899999996,288.83930899999996,288.83930899999996,None,288.83930899999996,288.83930899999996,288.83930899999996,288.83930899999996,None,,,,,,,101,1,-1,2023-02-20_10h13.31.440,Moral_Emotion_Task,2022.2.4,None,
王丽,王丽戴橡胶手套检查病人。病人,王丽戴橡胶手套检查病人这种行为是：,7,goodPhappyE,materials/situations/7.PNG,materials/happyreason/7.PNG,materials/goodpropose/7.PNG,materials/happyending/7.PNG,0,8,8,8,,,,,,,,,,,,,288.83930899999996,0.009086600000046019,[0.14305555555555555],[-0.10555555555555556],[1],[0],[0],[4.092712500000289],292.93652139999995,0.008376400000088324,[0.15069444444444444],[-0.10486111111111111],[1],[0],[0],[5.074275700000271],298.0203405000002,0.00880619999998089,[0.15069444444444444],[-0.09722222222222222],[1],[0],[0],[1.8742521000003762],299.93794160000016,302.91662180000003,305.2400596000002,305.2400596000002,305.2400596000002,305.2400596000002,6.005208333333333,4.276921399999992,309.4966383000001,313.4980446999998,313.4980446999998,313.4980446999998,313.4980446999998,313.4980446999998,None,313.4980446999998,313.4980446999998,313.4980446999998,313.4980446999998,None,,,,,,,101,1,-1,2023-02-20_10h13.31.440,Moral_Emotion_Task,2022.2.4,None,
严浩,严浩没有让乘客系好安全带。飞船开动后，这名乘客,严浩没有让乘客系好安全带这种行为：,45,badPsadE,materials/situations/45.PNG,materials/sadreason/45.PNG,materials/badpropose/45.PNG,materials/sadending/45.PNG,0,9,9,9,,,,,,,,,,,,,313.4980446999998,0.008736399999634159,[0.27361111111111114],[-0.018055555555555554],[1],[0],[0],[2.9139052000000447],316.4317036000002,0.010453299999880983,[0.049305555555555554],[-0.017361111111111112],[1],[0],[0],[4.503723199999968],320.9363794000001,0.009029499999996915,[],[],[],[],[],[],323.27265720000014,326.2434923999999,328.55575420000014,328.55575420000014,328.55575420000014,328.55575420000014,1,4.44034210000018,332.9894390999998,337.99290710000014,337.99290710000014,337.99290710000014,337.99290710000014,337.99290710000014,None,337.99290710000014,337.99290710000014,337.99290710000014,337.99290710000014,None,,,,,,,101,1,-1,2023-02-20_10h13.31.440,Moral_Emotion_Task,2022.2.4,None,
赵晨,赵晨鼓励朋友下去游泳。赵晨的朋友在池塘,赵晨鼓励朋友下去游泳这种行为：,25,goodPhappyE,materials/situations/25.PNG,materials/happyreason/25.PNG,materials/goodpropose/25.PNG,materials/happyending/25.PNG,0,10,10,10,,,,,,,,,,,,,337.99290710000014,0.008385700000417273,[0.05347222222222222],[-0.125],[1],[0],[0],[3.721439200000077],341.7235360999998,0.007852199999888398,[0.05347222222222222],[-0.125],[1],[0],[0],[3.0747584000000643],344.80707500000017,0.01141639999968902,[],[],[],[],[],[],347.1232057000002,350.1056724,352.4099188,352.4099188,352.4099188,352.4099188,4.015625,3.3162413000000015,355.72953270000016,361.73115899999993,361.73115899999993,361.73115899999993,361.73115899999993,361.73115899999993,None,361.73115899999993,361.73115899999993,361.73115899999993,361.73115899999993,None,,,352.4099188,,,,101,1,-1,2023-02-20_10h13.31.440,Moral_Emotion_Task,2022.2.4,None,
陈钢,陈钢同意飞机起飞。飞机,陈钢没有再要求清理跑道这种行为是：,16,badPhappyE,materials/situations/16.PNG,materials/happyreason/16.PNG,materials/badpropose/16.PNG,materials/happyending/16.PNG,0,11,11,11,,,,,,,,,,,,,361.73115899999993,0.0071378000002368935,[0.06458333333333334],[-0.13333333333333333],[1],[0],[0],[3.6297687000001133],365.3728801000002,0.0115869000001112,[0.04652777777777778],[-0.125],[1],[0],[0],[2.46675950000008],367.849068,0.008136200000080862,[0.09305555555555556],[-0.15833333333333333],[1],[0],[0],[2.0863405999998577],369.9443117999999,372.9525027999998,375.2851953999998,375.2851953999998,375.2851953999998,375.2851953999998,2.994791666666667,6.282620400000269,381.5334134,384.5385593000001,384.5385593000001,384.5385593000001,384.5385593000001,384.5385593000001,None,384.5385593000001,384.5385593000001,384.5385593000001,384.5385593000001,None,,,,,,,101,1,-1,2023-02-20_10h13.31.440,Moral_Emotion_Task,2022.2.4,None,
李明,李明继续开车回家。这个路人,李明继续开车回家这种行为是：,9,badPsadE,materials/situations/9.PNG,materials/sadreason/9.PNG,materials/badpropose/9.PNG,materials/sadending/9.PNG,0,12,12,12,,,,,,,,,,,,,384.5385593000001,0.009038799999871117,[0.07708333333333334],[-0.10277777777777777],[1],[0],[0],[2.546873599999799],387.09368700000005,0.00805339999988064,[0.007638888888888889],[-0.09305555555555556],[1],[0],[0],[4.396989500000018],391.50130260000014,0.010870800000247982,[0.034027777777777775],[-0.10277777777777777],[1],[0],[0],[2.031795299999885],393.5434627999998,396.5578085000002,398.86270490000015,398.86270490000015,398.86270490000015,398.86270490000015,3.0,5.162917199999811,404.0225623000001,409.03035739999996,409.03035739999996,409.03035739999996,409.03035739999996,409.03035739999996,None,409.03035739999996,409.03035739999996,409.03035739999996,409.03035739999996,None,,,,,,,101,1,-1,2023-02-20_10h13.31.440,Moral_Emotion_Task,2022.2.4,None,
徐娜,徐娜叫她的朋友到冰屋里玩。她的朋友,徐娜叫朋友到冰屋里玩这种行为是：,19,goodPsadE,materials/situations/19.PNG,materials/sadreason/19.PNG,materials/goodpropose/19.PNG,materials/sadending/19.PNG,0,13,13,13,,,,,,,,,,,,,409.03035739999996,0.008633599999939179,[0.043055555555555555],[-0.15694444444444444],[1],[0],[0],[5.112217999999757],414.1506062000003,0.007780100000672974,[0.050694444444444445],[-0.16458333333333333],[1],[0],[0],[1.9135498999994525],416.0758529,0.00979269999970711,[0.043055555555555555],[-0.17291666666666666],[1],[0],[0],[2.2541466999991826],418.33648010000024,421.3515677999999,423.68046319999985,423.68046319999985,423.68046319999985,423.68046319999985,3.8697916666666665,5.6661661999996795,429.32018930000004,433.32364929999994,433.32364929999994,433.32364929999994,433.32364929999994,433.32364929999994,None,433.32364929999994,433.32364929999994,433.32364929999994,433.32364929999994,None,,,,,,,101,1,-1,2023-02-20_10h13.31.440,Moral_Emotion_Task,2022.2.4,None,
罗兰,罗兰把蘑菇给朋友吃。罗兰的朋友,罗兰把蘑菇送给朋友吃这种行为是：,6,badPhappyE,materials/situations/6.PNG,materials/happyreason/6.PNG,materials/badpropose/6.PNG,materials/happyending/6.PNG,0,14,14,14,,,,,,,,,,,,,433.32364929999994,0.007817599999725644,[-0.017361111111111112],[-0.19930555555555557],[1],[0],[0],[3.12004270000034],436.45434539999997,0.009795100000701495,[-0.025],[-0.19166666666666668],[1],[0],[0],[1.5295184000005975],437.99596599999995,0.007983999999851221,[-0.041666666666666664],[-0.19166666666666668],[1],[0],[0],[2.1751115000006394],440.1790341000001,443.1815492999999,445.4860921000004,445.4860921000004,445.4860921000004,445.4860921000004,2.192708333333333,3.7398419999999533,449.22719110000025,453.22870920000014,453.22870920000014,453.22870920000014,453.22870920000014,453.22870920000014,None,453.22870920000014,453.22870920000014,453.22870920000014,453.22870920000014,None,,,,,,,101,1,-1,2023-02-20_10h13.31.440,Moral_Emotion_Task,2022.2.4,None,
罗格,罗格没有管他的朋友。他的朋友,罗格没有管他的朋友这种行为是：,15,goodPhappyE,materials/situations/15.PNG,materials/happyreason/15.PNG,materials/goodpropose/15.PNG,materials/happyending/15.PNG,0,15,15,15,,,,,,,,,,,,,453.22870920000014,0.007519200000388082,[0.07569444444444444],[-0.035416666666666666],[1],[0],[0],[3.4117829999995593],456.6477380000001,0.009385699999256758,[0.13680555555555557],[-0.044444444444444446],[1],[0],[0],[2.6442808000001605],459.30066450000004,0.008346099999471335,[0.15347222222222223],[-0.035416666666666666],[1],[0],[0],[1.8624114999993253],461.1980632,464.1791922999996,466.4851872000004,466.4851872000004,466.4851872000004,466.4851872000004,3.0625,3.7158394999996744,470.2023815999996,473.20280839999987,473.20280839999987,473.20280839999987,473.20280839999987,473.20280839999987,None,473.20280839999987,473.20280839999987,473.20280839999987,473.20280839999987,None,,,,,,,101,1,-1,2023-02-20_10h13.31.440,Moral_Emotion_Task,2022.2.4,None,
许乐,许乐让男朋友去碎浪那边游泳。她的男朋友,许乐让男朋友去碎浪那边游泳这种行为：,42,badPsadE,materials/situations/42.PNG,materials/sadreason/42.PNG,materials/badpropose/42.PNG,materials/sadending/42.PNG,0,16,16,16,,,,,,,,,,,,,473.20280839999987,0.006871999999930267,[-0.14097222222222222],[-0.19236111111111112],[1],[0],[0],[2.1943246000000727],475.4045965999999,0.00767450000057579,[-0.14097222222222222],[-0.19236111111111112],[1],[0],[0],[2.7431625999997777],478.15968099999964,0.008220799999435258,[],[],[],[],[],[],480.4593823,483.4655391000001,485.7692258000002,485.7692258000002,485.7692258000002,485.7692258000002,1.921875,6.711202200000116,492.4890247999997,498.5009882999998,498.5009882999998,498.5009882999998,498.5009882999998,498.5009882999998,None,498.5009882999998,498.5009882999998,498.5009882999998,498.5009882999998,None,,,,,,,101,1,-1,2023-02-20_10h13.31.440,Moral_Emotion_Task,2022.2.4,None,
乔南,乔南点燃熏香。毒气充斥着整座房屋，把害虫都杀光了。邻居的妈妈,乔南点燃熏香这种行为：,35,badPhappyE,materials/situations/35.PNG,materials/happyreason/35.PNG,materials/badpropose/35.PNG,materials/happyending/35.PNG,0,17,17,17,,,,,,,,,,,,,498.5009882999998,0.008844300000419025,[-0.21805555555555556],[-0.15486111111111112],[1],[0],[0],[4.620607699999709],503.1317396999998,0.008616600000095787,[-0.19930555555555557],[-0.18055555555555555],[1],[0],[0],[3.099314900000536],506.2431885000001,0.01277490000029502,[],[],[],[],[],[],508.5994624,511.54867369999965,513.8801521,513.8801521,513.8801521,513.8801521,4.958333333333333,7.1657357000003685,521.0240398999999,526.0269354999996,526.0269354999996,526.0269354999996,526.0269354999996,526.0269354999996,None,526.0269354999996,526.0269354999996,526.0269354999996,526.0269354999996,None,,,,,,,101,1,-1,2023-02-20_10h13.31.440,Moral_Emotion_Task,2022.2.4,None,
叶蓉,叶蓉把小狗卖给女顾客。小狗,叶蓉把小狗卖给女顾客这种行为：,39,goodPhappyE,materials/situations/39.PNG,materials/happyreason/39.PNG,materials/goodpropose/39.PNG,materials/happyending/39.PNG,0,18,18,18,,,,,,,,,,,,,526.0269354999996,0.010341699999116827,[0.14305555555555555],[-0.15],[1],[0],[0],[3.1643966999999975],529.2008496000003,0.008174599999620114,[0.1],[-0.21805555555555556],[1],[0],[0],[2.403155599999991],531.6166811999997,0.006781200000659737,[],[],[],[],[],[],533.9188225000003,536.9206570000001,539.2279191000002,539.2279191000002,539.2279191000002,539.2279191000002,5.854166666666667,8.303855099999964,547.5293145,551.5382700000005,551.5382700000005,551.5382700000005,551.5382700000005,551.5382700000005,None,551.5382700000005,551.5382700000005,551.5382700000005,551.5382700000005,None,,,,,,,101,1,-1,2023-02-20_10h13.31.440,Moral_Emotion_Task,2022.2.4,None,
何华,何华没有尝试叫醒朋友。他的朋友,何华没有尝试叫醒朋友这种行为：,40,badPsadE,materials/situations/40.PNG,materials/sadreason/40.PNG,materials/badpropose/40.PNG,materials/sadending/40.PNG,0,19,19,19,,,,,,,,,,,,,551.5382700000005,0.009000099999866507,[0.10486111111111111],[-0.00625],[1],[0],[0],[3.1900532999998177],554.7363441000002,0.009545300000354473,[0.15555555555555556],[-0.05763888888888889],[1],[0],[0],[3.486666300000252],558.2391166000002,0.010712900000726222,[],[],[],[],[],[],560.5641234999998,563.5454451,565.8603298000003,565.8603298000003,565.8603298000003,565.8603298000003,2.234375,4.006958300000406,569.8591153000002,575.8686151999996,575.8686151999996,575.8686151999996,575.8686151999996,575.8686151999996,None,575.8686151999996,575.8686151999996,575.8686151999996,575.8686151999996,None,,,,,,,101,1,-1,2023-02-20_10h13.31.440,Moral_Emotion_Task,2022.2.4,None,
路明,路明让伙伴爬上树屋。他的朋友,路明让伙伴爬上树屋这种行为：,41,goodPsadE,materials/situations/41.PNG,materials/sadreason/41.PNG,materials/goodpropose/41.PNG,materials/sadending/41.PNG,0,20,20,20,,,,,,,,,,,,,575.8686151999996,0.00859409999975469,[0.03888888888888889],[0.07013888888888889],[1],[0],[0],[2.4276954999995723],578.3059574000004,0.007114200000614801,[0.10625],[-0.09166666666666666],[1],[0],[0],[4.223437300000114],582.5381861999999,0.011885199999596807,[],[],[],[],[],[],584.8755835999996,587.8391599000001,590.1528168,590.1528168,590.1528168,590.1528168,3.125,5.794731500000125,595.9410820999997,600.9451426,600.9451426,600.9451426,600.9451426,600.9451426,None,600.9451426,600.9451426,600.9451426,600.9451426,None,,,,,,,101,1,-1,2023-02-20_10h13.31.440,Moral_Emotion_Task,2022.2.4,None,
赵晨,赵晨鼓励朋友下去游泳。赵晨的朋友在池塘,赵晨鼓励朋友下去游泳这种行为：,25,badPhappyE,materials/situations/25.PNG,materials/happyreason/25.PNG,materials/badpropose/25.PNG,materials/happyending/25.PNG,0,21,21,21,,,,,,,,,,,,,600.9451426,0.009952700000212644,[0.0125],[0.009027777777777777],[1],[0],[0],[2.883128599999509],603.8391084,0.007670099999813829,[0.14305555555555555],[-0.12986111111111112],[1],[0],[0],[3.43953429999965],607.289781,0.009278599999561266,[],[],[],[],[],[],609.5846944999998,612.5911907000004,614.8923091000001,614.8923091000001,614.8923091000001,614.8923091000001,1.7864583333333335,4.999731099999735,619.8967957999998,623.9056575,623.9056575,623.9056575,623.9056575,623.9056575,None,623.9056575,623.9056575,623.9056575,623.9056575,None,,,,612.5911907000004,,,101,1,-1,2023-02-20_10h13.31.440,Moral_Emotion_Task,2022.2.4,None,
许乐,许乐让男朋友去碎浪那边游泳。她的男朋友,许乐让男朋友去碎浪那边游泳这种行为：,42,goodPsadE,materials/situations/42.PNG,materials/sadreason/42.PNG,materials/goodpropose/42.PNG,materials/sadending/42.PNG,0,22,22,22,,,,,,,,,,,,,623.9056575,0.007914299999356444,[-0.1423611111111111],[-0.11875],[1],[0],[0],[2.699872299999697],626.6160188999997,0.011855099999593222,[-0.17569444444444443],[-0.12708333333333333],[1],[0],[0],[2.4639063999993596],629.0904695000004,0.009418599999662547,[],[],[],[],[],[],631.3885206,634.3872015000002,636.6949950000003,636.6949950000003,636.6949950000003,636.6949950000003,1,4.71567049999976,641.4192638,647.4247780999999,647.4247780999999,647.4247780999999,647.4247780999999,647.4247780999999,None,647.4247780999999,647.4247780999999,647.4247780999999,647.4247780999999,None,631.3885206,2.2995994999992035,,634.3872015000002,,,101,1,-1,2023-02-20_10h13.31.440,Moral_Emotion_Task,2022.2.4,None,
马超,马超继续读着报纸。孩子,马超继续读着报纸这种行为：,44,goodPhappyE,materials/situations/44.PNG,materials/happyreason/44.PNG,materials/goodpropose/44.PNG,materials/happyending/44.PNG,0,23,23,23,,,,,,,,,,,,,647.4247780999999,0.00923640000019077,[0.3770833333333333],[0.075],[1],[0],[0],[3.8371993000000657],651.2750620000002,0.010653700000148092,[0.36180555555555555],[-0.11388888888888889],[1],[0],[0],[2.1397156000002724],653.4222161000002,0.008046500000091328,[],[],[],[],[],[],655.7539695,658.7242109000003,661.0355973999999,661.0355973999999,661.0355973999999,661.0355973999999,3.8229166666666665,4.245465099999819,665.2813684999996,671.2888203999996,671.2888203999996,671.2888203999996,671.2888203999996,671.2888203999996,None,671.2888203999996,671.2888203999996,671.2888203999996,671.2888203999996,None,,,,,,,101,1,-1,2023-02-20_10h13.31.440,Moral_Emotion_Task,2022.2.4,None,
唐静,唐静让妹妹在桌边玩。唐静的妹妹,唐静让妹妹在桌边玩这种行为是：,13,goodPsadE,materials/situations/13.PNG,materials/sadreason/13.PNG,materials/goodpropose/13.PNG,materials/sadending/13.PNG,0,24,24,24,,,,,,,,,,,,,671.2888203999996,0.010921000000053027,[0.11944444444444445],[-0.07291666666666667],[1],[0],[0],[2.8060098999994807],674.1039213999998,0.009181000000353379,[0.11805555555555555],[-0.07222222222222222],[1],[0],[0],[2.646411700000499],676.7598417000004,0.009024299999509822,[0.11805555555555555],[-0.08055555555555556],[1],[0],[0],[1.9751610000002984],678.7383060999996,681.7391153000003,684.0415668,684.0415668,684.0415668,684.0415668,1.984375,5.21142300000065,689.2624948999996,693.2718104,693.2718104,993.2697378999997,693.2718104,993.2697378999997,None,993.2697378999997,,993.2697378999997,,s,,,684.0415668,681.7391153000003,138.29911519999996,,101,1,-1,2023-02-20_10h13.31.440,Moral_Emotion_Task,2022.2.4,None,
郑宇,郑宇没有阻止朋友开枪。子弹射中了,郑宇没有阻止朋友开枪这种行为：,26,badPsadE,materials/situations/26.PNG,materials/sadreason/26.PNG,materials/badpropose/26.PNG,materials/sadending/26.PNG,0,25,25,25,,,,,,,,,,,,,1131.5923362999997,0.008804999999483698,[0.22708333333333333],[-0.003472222222222222],[1],[0],[0],[3.7913155000005645],1135.3930937,0.008377900000596128,[0.22708333333333333],[0.004861111111111111],[1],[0],[0],[3.0579338999996253],1138.4591028999998,0.008774599999924249,[],[],[],[],[],[],1140.7565043,1143.7636071000002,1146.0702656999997,1146.0702656999997,1146.0702656999997,1146.0702656999997,2.6927083333333335,4.976414499999919,1151.0455118000004,1154.0511732999998,1154.0511732999998,1154.0511732999998,1154.0511732999998,1154.0511732999998,None,1154.0511732999998,1154.0511732999998,1154.0511732999998,1154.0511732999998,None,,,,,,,101,1,-1,2023-02-20_10h13.31.440,Moral_Emotion_Task,2022.2.4,None,
杨鹏,杨鹏马上让妻子吃药。他的妻子,杨鹏马上让妻子吃药这种行为是：,10,badPhappyE,materials/situations/10.PNG,materials/happyreason/10.PNG,materials/badpropose/10.PNG,materials/happyending/10.PNG,0,26,26,26,,,,,,,,,,,,,1154.0511732999998,0.010708400000112306,[-0.18055555555555555],[-0.07430555555555556],[1],[0],[0],[3.9164215000000695],1157.9760892999998,0.007786399999531568,[-0.18055555555555555],[-0.07430555555555556],[1],[0],[0],[2.581598199999462],1160.5667996999996,0.008839900000566558,[],[],[],[],[],[],1162.8669652000003,1165.8771031,1168.1784650000004,1168.1784650000004,1168.1784650000004,1168.1784650000004,1.9583333333333335,3.3109629000000496,1171.4828929,1177.4944505999997,1177.4944505999997,1177.4944505999997,1177.4944505999997,1177.4944505999997,None,1177.4944505999997,1177.4944505999997,1177.4944505999997,1177.4944505999997,None,,,,,,,101,1,-1,2023-02-20_10h13.31.440,Moral_Emotion_Task,2022.2.4,None,
张克,张克邀请朋友吃饼干。他的朋友,张克邀请他的朋友吃饼干这种行为是：,22,goodPhappyE,materials/situations/22.PNG,materials/happyreason/22.PNG,materials/goodpropose/22.PNG,materials/happyending/22.PNG,0,27,27,27,,,,,,,,,,,,,1177.4944505999997,0.009003699999993842,[-0.1701388888888889],[-0.08333333333333333],[1],[0],[0],[3.937773200000265],1181.4447031000004,0.008571699999265547,[-0.10833333333333334],[-0.09305555555555556],[1],[0],[0],[1.729195300000356],1183.1791968000002,0.008016300000235788,[-0.15],[-0.11875],[1],[0],[0],[1.5116723000001002],1184.6929382000003,1187.7039397000003,1190.0145968000002,1190.0145968000002,1190.0145968000002,1190.0145968000002,6.9375,2.6252140000005966,1192.6460203000001,1198.6736171999996,1198.6736171999996,1198.6736171999996,1198.6736171999996,1198.6736171999996,None,1198.6736171999996,1198.6736171999996,1198.6736171999996,1198.6736171999996,None,,,,1187.7039397000003,,,101,1,-1,2023-02-20_10h13.31.440,Moral_Emotion_Task,2022.2.4,None,
李浩,李浩不理会侄子胃疼。他的侄子很快就,李浩不理会侄子胃疼这种行为：,31,badPhappyE,materials/situations/31.PNG,materials/happyreason/31.PNG,materials/badpropose/31.PNG,materials/happyending/31.PNG,0,28,28,28,,,,,,,,,,,,,1198.6736171999996,0.03294149999965157,[-0.02361111111111111],[-0.10347222222222222],[1],[0],[0],[1.6588799000001018],1200.3443144999997,0.010951700000077835,[-0.04791666666666667],[-0.10277777777777777],[1],[0],[0],[3.079546400000254],1203.4372040000003,0.00818390000040381,[],[],[],[],[],[],1205.7350615999999,1208.7442851,1211.0537528999998,1211.0537528999998,1211.0537528999998,1211.0537528999998,1.942708333333333,3.694913099999212,1214.7484366000003,1219.7614766000002,1219.7614766000002,1219.7614766000002,1219.7614766000002,1219.7614766000002,None,1219.7614766000002,1219.7614766000002,1219.7614766000002,1219.7614766000002,None,,,,,,,101,1,-1,2023-02-20_10h13.31.440,Moral_Emotion_Task,2022.2.4,None,
严浩,严浩没有让乘客系好安全带。飞船开动后，这名乘客,严浩没有让乘客系好安全带这种行为：,45,goodPsadE,materials/situations/45.PNG,materials/sadreason/45.PNG,materials/goodpropose/45.PNG,materials/sadending/45.PNG,0,29,29,29,,,,,,,,,,,,,1219.7614766000002,0.009613700000045355,[0.08819444444444445],[-0.1076388888888889],[1],[0],[0],[2.737391700000444],1222.5106849999997,0.008641900000839087,[0.08819444444444445],[-0.1076388888888889],[1],[0],[0],[2.8243172000002232],1225.3418825000003,0.008473900000353751,[],[],[],[],[],[],1227.6438046999997,1230.6454608999998,1232.9447269999996,1232.9447269999996,1232.9447269999996,1232.9447269999996,3.130208333333333,0.9326655000004394,1233.8829539000003,1237.9022726999997,1237.9022726999997,1237.9022726999997,1237.9022726999997,1237.9022726999997,None,1237.9022726999997,1237.9022726999997,1237.9022726999997,1237.9022726999997,None,,,,,,,101,1,-1,2023-02-20_10h13.31.440,Moral_Emotion_Task,2022.2.4,None,
王齐,王齐向同事推荐金枪鱼。他的一个同事吃了这道菜后，,王齐向同事推荐金枪鱼这种行为：,33,badPhappyE,materials/situations/33.PNG,materials/happyreason/33.PNG,materials/badpropose/33.PNG,materials/happyending/33.PNG,0,30,30,30,,,,,,,,,,,,,1237.9022726999997,0.013926800000263029,[-0.04097222222222222],[-0.09583333333333334],[1],[0],[0],[2.8202697999995507],1240.7323349000003,0.012421399999766436,[-0.04097222222222222],[-0.09583333333333334],[1],[0],[0],[1.9015430999997989],1242.6449196999997,0.009019000000080268,[],[],[],[],[],[],1244.9853565999997,1247.9488024999996,1250.2718231000003,1250.2718231000003,1250.2718231000003,1250.2718231000003,4.510416666666666,2.46923870000046,1252.7305443,1255.7383264000005,1255.7383264000005,1255.7383264000005,1255.7383264000005,1255.7383264000005,None,1255.7383264000005,1255.7383264000005,1255.7383264000005,1255.7383264000005,None,,,,,,,101,1,-1,2023-02-20_10h13.31.440,Moral_Emotion_Task,2022.2.4,None,
李明,李明继续开车回家。这个路人,李明继续开车回家这种行为是：,9,badPhappyE,materials/situations/9.PNG,materials/happyreason/9.PNG,materials/badpropose/9.PNG,materials/happyending/9.PNG,0,31,31,31,,,,,,,,,,,,,1255.7383264000005,0.008756899999752932,[-0.016666666666666666],[-0.15555555555555556],[1],[0],[0],[2.4160096999994494],1258.1613519999996,0.009850700000242796,[-0.034027777777777775],[-0.16458333333333333],[1],[0],[0],[1.915762900000118],1260.0915514000003,0.01158709999981511,[],[],[],[],[],[],1262.3925937,1265.3952006000004,1267.7033032000004,1267.7033032000004,1267.7033032000004,1267.7033032000004,3.6875,3.5742960999996285,1271.2804184000001,1276.2908807,1276.2908807,1276.2908807,1276.2908807,1276.2908807,None,1276.2908807,1276.2908807,1276.2908807,1276.2908807,None,,,,,,,101,1,-1,2023-02-20_10h13.31.440,Moral_Emotion_Task,2022.2.4,None,
马慧,马慧没有阻止堂兄走进厨房。她的堂兄,马慧没有阻止堂兄进厨房这种行为是：,21,goodPhappyE,materials/situations/21.PNG,materials/happyreason/21.PNG,materials/goodpropose/21.PNG,materials/happyending/21.PNG,0,32,32,32,,,,,,,,,,,,,1276.2908807,0.012142399999902409,[0.21458333333333332],[-0.13125],[1],[0],[0],[2.511731399999917],1278.8102821999996,0.010218800000075134,[0.21458333333333332],[-0.13125],[1],[0],[0],[1.91783310000028],1280.7442250999998,0.015247899999849324,[0.15486111111111112],[-0.19166666666666668],[1],[0],[0],[1.8101630000001023],1282.5723788,1285.5778056000004,1287.8911509000004,1287.8911509000004,1287.8911509000004,1287.8911509000004,2.890625,2.4421189999993658,1290.3187887999998,1295.3295521000005,1295.3295521000005,1295.3295521000005,1295.3295521000005,1295.3295521000005,None,1295.3295521000005,1295.3295521000005,1295.3295521000005,1295.3295521000005,None,,,,,,,101,1,-1,2023-02-20_10h13.31.440,Moral_Emotion_Task,2022.2.4,None,
罗兰,罗兰把蘑菇给朋友吃。罗兰的朋友,罗兰把蘑菇送给朋友吃这种行为是：,6,goodPhappyE,materials/situations/6.PNG,materials/happyreason/6.PNG,materials/goodpropose/6.PNG,materials/happyending/6.PNG,0,33,33,33,,,,,,,,,,,,,1295.3295521000005,0.008754899999985355,[0.12569444444444444],[-0.10694444444444444],[1],[0],[0],[1.6657301000004736],1297.0043818,0.010322099999939383,[0.11666666666666667],[-0.11527777777777778],[1],[0],[0],[1.8284668000005695],1298.8452979999997,0.007924399999865273,[0.11736111111111111],[-0.125],[1],[0],[0],[2.147820700000011],1300.9944609999998,1303.9965327000004,1306.3109977999998,1306.3109977999998,1306.3109977999998,1306.3109977999998,5.671875,3.1760427999997773,1309.4829698999997,1315.4945635999998,1315.4945635999998,1315.4945635999998,1315.4945635999998,1315.4945635999998,None,1315.4945635999998,1315.4945635999998,1315.4945635999998,1315.4945635999998,None,,,,1303.9965327000004,,,101,1,-1,2023-02-20_10h13.31.440,Moral_Emotion_Task,2022.2.4,None,
徐娜,徐娜叫她的朋友到冰屋里玩。她的朋友,徐娜叫朋友到冰屋里玩这种行为是：,19,badPhappyE,materials/situations/19.PNG,materials/happyreason/19.PNG,materials/badpropose/19.PNG,materials/happyending/19.PNG,0,34,34,34,,,,,,,,,,,,,1315.4945635999998,0.012737499999275315,[0.006944444444444444],[-0.07777777777777778],[1],[0],[0],[2.1101127000001725],1317.6125631,0.008648200000607176,[0.006944444444444444],[-0.07777777777777778],[1],[0],[0],[3.5439409000000524],1321.1775011000004,0.01273010000022623,[],[],[],[],[],[],1323.4621717000005,1326.4983661,1328.7766460999997,1328.7766460999997,1328.7766460999997,1328.7766460999997,3.2135416666666665,2.3374974999996994,1331.1188469000003,1337.133093,1337.133093,1337.133093,1337.133093,1337.133093,None,1337.133093,1337.133093,1337.133093,1337.133093,None,,,,,,,101,1,-1,2023-02-20_10h13.31.440,Moral_Emotion_Task,2022.2.4,None,
胡梅,胡梅把新降落伞给顾客。顾客使用这把降落伞时,胡梅把新降落伞给顾客这种行为：,38,goodPsadE,materials/situations/38.PNG,materials/sadreason/38.PNG,materials/goodpropose/38.PNG,materials/sadending/38.PNG,0,35,35,35,,,,,,,,,,,,,1337.133093,0.012808999999833759,[0.20902777777777778],[-0.10972222222222222],[1],[0],[0],[2.566436099999919],1339.7163695000004,0.010745899999164976,[0.2013888888888889],[-0.10972222222222222],[1],[0],[0],[3.245328299999528],1342.9771490999997,0.01311589999932039,[],[],[],[],[],[],1345.2691818999997,1348.2757053,1350.5779097,1350.5779097,1350.5779097,1350.5779097,1.6302083333333333,3.367873999999574,1353.9559672999999,1357.9674343000001,1357.9674343000001,1357.9674343000001,1357.9674343000001,1357.9674343000001,None,1357.9674343000001,1357.9674343000001,1357.9674343000001,1357.9674343000001,None,,,,,,,101,1,-1,2023-02-20_10h13.31.440,Moral_Emotion_Task,2022.2.4,None,
唐巧,唐巧让男孩走进冒烟的房子。男孩,唐巧让男孩走进冒烟房子这种行为是：,24,goodPsadE,materials/situations/24.PNG,materials/sadreason/24.PNG,materials/goodpropose/24.PNG,materials/sadending/24.PNG,0,36,36,36,,,,,,,,,,,,,1357.9674343000001,0.013084000000162632,[0.1736111111111111],[-0.13680555555555557],[1],[0],[0],[4.276880000000347],1362.2600918000003,0.009859599999799684,[0.1736111111111111],[-0.13680555555555557],[1],[0],[0],[2.466788699999597],1364.7314057999997,0.009786599999642931,[0.1736111111111111],[-0.13680555555555557],[1],[0],[0],[1.972771499999908],1366.7095451,1369.7146956000001,1372.0202848000004,1372.0202848000004,1372.0202848000004,1372.0202848000004,1.859375,1.7064503999999943,1373.7328063,1379.7465430999996,1379.7465430999996,1379.7465430999996,1379.7465430999996,1379.7465430999996,None,1379.7465430999996,1379.7465430999996,1379.7465430999996,1379.7465430999996,None,,,,1369.7146956000001,,,101,1,-1,2023-02-20_10h13.31.440,Moral_Emotion_Task,2022.2.4,None,
林蕾,林蕾把粉末放进朋友咖啡里。林蕾的朋友喝完咖啡后,林蕾把粉末放进朋友咖啡里这种行为：,1,badPsadE,materials/situations/1.PNG,materials/sadreason/1.PNG,materials/badpropose/1.PNG,materials/sadending/1.PNG,0,37,37,37,,,,,,,,,,,,,1379.7465430999996,0.009860699999990175,[0.09583333333333334],[-0.16180555555555556],[1],[0],[0],[3.4775627999997596],1383.2321507000001,0.011925000000701402,[0.09583333333333334],[-0.16180555555555556],[1],[0],[0],[1.7240317999994659],1384.9682801000004,0.008799000000180968,[],[],[],[],[],[],1387.2838734000002,1390.2804751999997,1392.5933227,1392.5933227,1392.5933227,1392.5933227,1,2.7401414999994813,1395.3264391999996,1398.3270863000002,1398.3270863000002,1398.3270863000002,1398.3270863000002,1398.3270863000002,None,1398.3270863000002,1398.3270863000002,1398.3270863000002,1398.3270863000002,None,,,,,,,101,1,-1,2023-02-20_10h13.31.440,Moral_Emotion_Task,2022.2.4,None,
唐静,唐静让妹妹在桌边玩。唐静的妹妹,唐静让妹妹在桌边玩这种行为是：,13,badPsadE,materials/situations/13.PNG,materials/sadreason/13.PNG,materials/badpropose/13.PNG,materials/sadending/13.PNG,0,38,38,38,,,,,,,,,,,,,1398.3270863000002,0.00866909999967902,[0.0763888888888889],[-0.18263888888888888],[1],[0],[0],[2.1664041000003635],1400.5044437000001,0.011250500000642205,[0.0763888888888889],[-0.18263888888888888],[1],[0],[0],[1.1091149000003497],1401.6298662000004,0.011009299999386712,[0.0763888888888889],[-0.18263888888888888],[1],[0],[0],[1.2799598000001424],1402.9088041,1405.9163733,1408.2187974000003,1408.2187974000003,1408.2187974000003,1408.2187974000003,6.213541666666667,0.4770198000005621,1408.7087388000004,1414.7151847,1414.7151847,1414.7151847,1414.7151847,1414.7151847,None,1414.7151847,1414.7151847,1414.7151847,1414.7151847,None,,,1408.2187974000003,1405.9163733,,,101,1,-1,2023-02-20_10h13.31.440,Moral_Emotion_Task,2022.2.4,None,
李明,李明继续开车回家。这个路人,李明继续开车回家这种行为是：,9,goodPhappyE,materials/situations/9.PNG,materials/happyreason/9.PNG,materials/goodpropose/9.PNG,materials/happyending/9.PNG,0,39,39,39,,,,,,,,,,,,,1414.7151847,0.00940719999925932,[0.03125],[-0.2152777777777778],[1],[0],[0],[2.4078315000006114],1417.1331906,0.0097022999998444,[0.03125],[-0.2152777777777778],[1],[0],[0],[1.6871979000006831],1418.8343633,0.009035499999299645,[0.03125],[-0.2152777777777778],[1],[0],[0],[1.6137972999995327],1420.4494075999996,1423.4568029999996,1425.7694055999996,1425.7694055999996,1425.7694055999996,1425.7694055999996,4.234375,1.167837099999815,1426.9347949999997,1432.9418557000004,1432.9418557000004,1432.9418557000004,1432.9418557000004,1432.9418557000004,None,1432.9418557000004,1432.9418557000004,1432.9418557000004,1432.9418557000004,None,,,,1423.4568029999996,,,101,1,-1,2023-02-20_10h13.31.440,Moral_Emotion_Task,2022.2.4,None,
程峰,程峰没有提醒客户。客户继续使用这台电脑,程峰没有提醒客户这种行为：,48,badPsadE,materials/situations/48.PNG,materials/sadreason/48.PNG,materials/badpropose/48.PNG,materials/sadending/48.PNG,0,40,40,40,,,,,,,,,,,,,1432.9418557000004,0.009726500000397209,[0.22430555555555556],[-0.1326388888888889],[1],[0],[0],[5.840082099999563],1438.7951325,0.013444799999888346,[0.22430555555555556],[-0.1326388888888889],[1],[0],[0],[1.9959491999998136],1440.8014074999996,0.009274400000322203,[0.07222222222222222],[-0.13402777777777777],[1],[0],[0],[1.8624993000003087],1442.7036781000002,1445.6839796999998,1447.9877420999997,1447.9877420999997,1447.9877420999997,1447.9877420999997,2.2135416666666665,2.703053700000055,1450.6906709999998,1453.6974089999999,1453.6974089999999,1453.6974089999999,1453.6974089999999,1453.6974089999999,None,1453.6974089999999,1453.6974089999999,1453.6974089999999,1453.6974089999999,None,,,,,,,101,1,-1,2023-02-20_10h13.31.440,Moral_Emotion_Task,2022.2.4,None,
徐娜,徐娜叫她的朋友到冰屋里玩。她的朋友,徐娜叫朋友到冰屋里玩这种行为是：,19,badPsadE,materials/situations/19.PNG,materials/sadreason/19.PNG,materials/badpropose/19.PNG,materials/sadending/19.PNG,0,41,41,41,,,,,,,,,,,,,1453.6974089999999,0.009269700000004377,[0.04722222222222222],[-0.1076388888888889],[1],[0],[0],[1.8333389999997962],1455.5353276,0.008274999999230204,[0.04722222222222222],[-0.1076388888888889],[1],[0],[0],[3.021689900000638],1458.5682401999998,0.010577699999885226,[],[],[],[],[],[],1460.8692102,1463.8782741999999,1466.2089374000002,1466.2089374000002,1466.2089374000002,1466.2089374000002,2.4947916666666665,3.305198400000336,1469.4952195,1475.4987558999997,1475.4987558999997,1475.4987558999997,1475.4987558999997,1475.4987558999997,None,1475.4987558999997,1475.4987558999997,1475.4987558999997,1475.4987558999997,None,,,,,,,101,1,-1,2023-02-20_10h13.31.440,Moral_Emotion_Task,2022.2.4,None,
罗格,罗格没有管他的朋友。他的朋友,罗格没有管他的朋友这种行为是：,15,goodPsadE,materials/situations/15.PNG,materials/sadreason/15.PNG,materials/goodpropose/15.PNG,materials/sadending/15.PNG,0,42,42,42,,,,,,,,,,,,,1475.4987558999997,0.010867099999813945,[-0.0875],[-0.15486111111111112],[1],[0],[0],[2.8236808999999994],1478.3343220000002,0.010062999999718159,[-0.0875],[-0.15486111111111112],[1],[0],[0],[2.3568479000005027],1480.7006311999999,0.010463499999787018,[],[],[],[],[],[],1483.0004591000002,1486.0164982000001,1488.3225986000002,1488.3225986000002,1488.3225986000002,1488.3225986000002,2.8802083333333335,2.407552699999542,1490.7317113000004,1494.7332410000004,1494.7332410000004,1494.7332410000004,1494.7332410000004,1494.7332410000004,None,1494.7332410000004,1494.7332410000004,1494.7332410000004,1494.7332410000004,None,,,,,,,101,1,-1,2023-02-20_10h13.31.440,Moral_Emotion_Task,2022.2.4,None,
何华,何华没有尝试叫醒朋友。他的朋友,何华没有尝试叫醒朋友这种行为：,40,goodPsadE,materials/situations/40.PNG,materials/sadreason/40.PNG,materials/goodpropose/40.PNG,materials/sadending/40.PNG,0,43,43,43,,,,,,,,,,,,,1494.7332410000004,0.009265600000617269,[-0.1076388888888889],[-0.17222222222222222],[1],[0],[0],[1.9723708000001352],1496.7197214000003,0.01363630000014382,[-0.11527777777777778],[-0.17222222222222222],[1],[0],[0],[2.111949899999672],1498.8489808999998,0.011942200000703451,[-0.1326388888888889],[-0.16319444444444445],[1],[0],[0],[1.4938893999997163],1500.3431849000003,1503.3513755999998,1505.6634049999998,1505.6634049999998,1505.6634049999998,1505.6634049999998,2.427083333333333,3.0407066000007035,1508.7026985999996,1511.7175386000004,1511.7175386000004,1511.7175386000004,1511.7175386000004,1511.7175386000004,None,1511.7175386000004,1511.7175386000004,1511.7175386000004,1511.7175386000004,None,,,,1503.3513755999998,,,101,1,-1,2023-02-20_10h13.31.440,Moral_Emotion_Task,2022.2.4,None,
李浩,李浩不理会侄子胃疼。他的侄子很快就,李浩不理会侄子胃疼这种行为：,31,goodPsadE,materials/situations/31.PNG,materials/sadreason/31.PNG,materials/goodpropose/31.PNG,materials/sadending/31.PNG,0,44,44,44,,,,,,,,,,,,,1511.7175386000004,0.011701500000526721,[-0.20972222222222223],[-0.19027777777777777],[1],[0],[0],[1.8788942000001043],1513.6066818000004,0.00837139999930514,[-0.20972222222222223],[-0.18194444444444444],[1],[0],[0],[2.897895700000845],1516.5181092999997,0.014285300000665302,[],[],[],[],[],[],1518.8149471000002,1521.8177583000002,1524.1192228000004,1524.1192228000004,1524.1192228000004,1524.1192228000004,1,2.757263700000294,1526.8806449999997,1531.9167789999997,1531.9167789999997,1531.9167789999997,1531.9167789999997,1531.9167789999997,None,1531.9167789999997,1531.9167789999997,1531.9167789999997,1531.9167789999997,None,,,,,,,101,1,-1,2023-02-20_10h13.31.440,Moral_Emotion_Task,2022.2.4,None,
陈杰,陈杰离开家去见朋友。警报一直在响，房屋,陈杰离开家去见朋友这种行为：,29,badPsadE,materials/situations/29.PNG,materials/sadreason/29.PNG,materials/badpropose/29.PNG,materials/sadending/29.PNG,0,45,45,45,,,,,,,,,,,,,1531.9167789999997,0.03542800000013813,[-0.014583333333333334],[-0.14097222222222222],[1],[0],[0],[2.526497699999709],1534.4561974000003,0.012031999999635445,[-0.02361111111111111],[-0.13194444444444445],[1],[0],[0],[1.8751390999996147],1536.3444539999996,0.010282100000040373,[-0.02361111111111111],[-0.11527777777777778],[1],[0],[0],[2.119045299999925],1538.5091002000004,1541.4809449999998,1543.7972782000002,1543.7972782000002,1543.7972782000002,1543.7972782000002,1.28125,4.435803800000031,1548.2164396000003,1551.2243587999997,1551.2243587999997,1551.2243587999997,1551.2243587999997,1551.2243587999997,None,1551.2243587999997,1551.2243587999997,1551.2243587999997,1551.2243587999997,None,,,,,,,101,1,-1,2023-02-20_10h13.31.440,Moral_Emotion_Task,2022.2.4,None,
罗兰,罗兰把蘑菇给朋友吃。罗兰的朋友,罗兰把蘑菇送给朋友吃这种行为是：,6,goodPsadE,materials/situations/6.PNG,materials/sadreason/6.PNG,materials/goodpropose/6.PNG,materials/sadending/6.PNG,0,46,46,46,,,,,,,,,,,,,1551.2243587999997,0.009993099999519472,[0.07708333333333334],[-0.11180555555555556],[1],[0],[0],[2.2472013999995397],1553.4817477000001,0.007945800000015879,[0.07708333333333334],[-0.12013888888888889],[1],[0],[0],[2.0951423999995313],1555.5944017999996,0.014137500000288128,[],[],[],[],[],[],1557.8888960999998,1560.8987078000005,1563.2041414999999,1563.2041414999999,1563.2041414999999,1563.2041414999999,1,4.9022382000002835,1568.1026090999999,1573.1145469999997,1573.1145469999997,1573.1145469999997,1573.1145469999997,1573.1145469999997,None,1573.1145469999997,1573.1145469999997,1573.1145469999997,1573.1145469999997,None,,,,,,,101,1,-1,2023-02-20_10h13.31.440,Moral_Emotion_Task,2022.2.4,None,
左艳,左艳让孩子坐上缆车。孩子,左艳让孩子坐上缆车这种行为是：,23,goodPhappyE,materials/situations/23.PNG,materials/happyreason/23.PNG,materials/goodpropose/23.PNG,materials/happyending/23.PNG,0,47,47,47,,,,,,,,,,,,,1573.1145469999997,0.010604299999613431,[0.06458333333333334],[-0.09027777777777778],[1],[0],[0],[1.9762430000000677],1575.1013774999997,0.012120499999582535,[0.06458333333333334],[-0.09027777777777778],[1],[0],[0],[1.7306394999995973],1576.8372624999997,0.009549499999593536,[],[],[],[],[],[],1579.1452034999998,1582.1529326000004,1584.4550924,1584.4550924,1584.4550924,1584.4550924,5.197916666666667,1.6208411999996315,1586.0836505000002,1591.1029733999999,1591.1029733999999,1591.1029733999999,1591.1029733999999,1591.1029733999999,None,1591.1029733999999,1591.1029733999999,1591.1029733999999,1591.1029733999999,None,,,,,,,101,1,-1,2023-02-20_10h13.31.440,Moral_Emotion_Task,2022.2.4,None,
马慧,马慧没有阻止堂兄走进厨房。她的堂兄,马慧没有阻止堂兄进厨房这种行为是：,21,badPsadE,materials/situations/21.PNG,materials/sadreason/21.PNG,materials/badpropose/21.PNG,materials/sadending/21.PNG,0,48,48,48,,,,,,,,,,,,,1591.1029733999999,0.013224299999819777,[-0.0125],[-0.125],[1],[0],[0],[2.0592773999997007],1593.1711067,0.010350300000027346,[-0.0125],[-0.1326388888888889],[1],[0],[0],[1.630543100000068],1594.8151756000002,0.00825630000053934,[-0.020833333333333332],[-0.125],[1],[0],[0],[1.5809325999998691],1596.4025054999997,1599.4048630000002,1601.7224468999998,1601.7224468999998,1601.7224468999998,1601.7224468999998,2.015625,3.490267799999856,1605.2123832000002,1608.2219649000003,1608.2219649000003,1608.2219649000003,1608.2219649000003,1608.2219649000003,None,1608.2219649000003,1608.2219649000003,1608.2219649000003,1608.2219649000003,None,,,,1599.4048630000002,,,101,1,-1,2023-02-20_10h13.31.440,Moral_Emotion_Task,2022.2.4,None,
刘莎,刘莎把绳索卖给顾客。顾客使用这条绳索攀岩时,刘莎把绳索卖给顾客这种行为：,30,badPhappyE,materials/situations/30.PNG,materials/happyreason/30.PNG,materials/badpropose/30.PNG,materials/happyending/30.PNG,0,49,49,49,,,,,,,,,,,,,1608.2219649000003,0.011902500000360305,[0.1736111111111111],[-0.175],[1],[0],[0],[3.5509808999995585],1611.7798872999997,0.008168399999703979,[0.19027777777777777],[-0.175],[1],[0],[0],[1.8393188999998529],1613.6330362000003,0.008206800000152725,[],[],[],[],[],[],1615.9451482,1618.9324456999998,1621.2497656,1621.2497656,1621.2497656,1621.2497656,1.6927083333333335,3.3019524000001184,1624.5398609999997,1629.5364087000003,1629.5364087000003,,1629.5364087000003,,space,1659.1937876999996,,1659.1937876999996,,s,,,,,20.631183500000134,29.64466559999937,101,1,-1,2023-02-20_10h13.31.440,Moral_Emotion_Task,2022.2.4,None,
孙泽,孙泽买了一袋菠菜给奶奶。他奶奶在晚饭上吃下了这些菠菜后,孙泽买了一袋菠菜给奶奶这种行为：,27,goodPhappyE,materials/situations/27.PNG,materials/happyreason/27.PNG,materials/goodpropose/27.PNG,materials/happyending/27.PNG,0,50,50,50,,,,,,,,,,,,,1679.8529056000002,0.010497200000827434,[0.3215277777777778],[-0.23125],[1],[0],[0],[3.454733800000213],1683.3166490999997,0.009495199999946635,[0.3215277777777778],[-0.23125],[1],[0],[0],[2.7316357999998218],1686.0653131000004,0.012535699999716599,[],[],[],[],[],[],1688.4068991,1691.3745136000002,1693.6775935,1693.6775935,1693.6775935,1693.6775935,2.942708333333333,7.000056500000028,1700.6731998999999,1704.6889416,1704.6889416,1704.6889416,1704.6889416,1704.6889416,None,1704.6889416,1704.6889416,1704.6889416,1704.6889416,None,,,,,,,101,1,-1,2023-02-20_10h13.31.440,Moral_Emotion_Task,2022.2.4,None,
赵智,赵智默默离开。挥手那人,赵智默默离开这种行为是：,8,badPsadE,materials/situations/8.PNG,materials/sadreason/8.PNG,materials/badpropose/8.PNG,materials/sadending/8.PNG,0,51,51,51,,,,,,,,,,,,,1704.6889416,0.009394300000167277,[-0.13333333333333333],[-0.19791666666666666],[1],[0],[0],[2.1058696999998574],1706.8059359000003,0.01198480000039126,[-0.13333333333333333],[-0.19791666666666666],[1],[0],[0],[1.6706168999999136],1708.4895242999996,0.010958300000311283,[-0.13333333333333333],[-0.19791666666666666],[1],[0],[0],[1.2309404999996332],1709.7329111000004,1712.7345790000004,1715.0403792000002,1715.0403792000002,1715.0403792000002,1715.0403792000002,1.390625,1.9038441000002422,1716.9493553999996,1719.9518245000004,1719.9518245000004,1719.9518245000004,1719.9518245000004,1719.9518245000004,None,1719.9518245000004,1719.9518245000004,1719.9518245000004,1719.9518245000004,None,,,,,,,101,1,-1,2023-02-20_10h13.31.440,Moral_Emotion_Task,2022.2.4,None,
杨乐,"杨乐跳过这一段铁轨的工作。这段铁轨开始运营,",杨乐跳过这一段铁轨工作这种行为是：,17,badPhappyE,materials/situations/17.PNG,materials/happyreason/17.PNG,materials/badpropose/17.PNG,materials/happyending/17.PNG,0,52,52,52,,,,,,,,,,,,,1719.9518245000004,0.008065999999416817,[-0.08333333333333333],[-0.21041666666666667],[1],[0],[0],[2.3180641999997533],1722.282146,0.013618799999676412,[-0.08333333333333333],[-0.21041666666666667],[1],[0],[0],[1.535515800000212],1723.8311998000004,0.009754900000189082,[-0.08333333333333333],[-0.21041666666666667],[1],[0],[0],[2.250346800000443],1726.0825085000001,1729.0849661999996,1731.3993918,1731.3993918,1731.3993918,1731.3993918,1.7864583333333335,2.951432900000327,1734.3504374999998,1740.3580450000004,1740.3580450000004,1740.3580450000004,1740.3580450000004,1740.3580450000004,None,1740.3580450000004,1740.3580450000004,1740.3580450000004,1740.3580450000004,None,,,1731.3993918,1729.0849661999996,,,101,1,-1,2023-02-20_10h13.31.440,Moral_Emotion_Task,2022.2.4,None,
赵晨,赵晨鼓励朋友下去游泳。赵晨的朋友在池塘,赵晨鼓励朋友下去游泳这种行为：,25,badPsadE,materials/situations/25.PNG,materials/sadreason/25.PNG,materials/badpropose/25.PNG,materials/sadending/25.PNG,0,53,53,53,,,,,,,,,,,,,1740.3580450000004,0.010711899999478192,[-0.24791666666666667],[-0.13472222222222222],[1],[0],[0],[2.5057817999995677],1742.8837225000002,0.012880400000540249,[-0.23194444444444445],[-0.13472222222222222],[1],[0],[0],[3.3467516000000614],1746.2377502000004,0.010714899999584304,[],[],[],[],[],[],1748.5324858999998,1751.5428430999996,1753.8438717000004,1753.8438717000004,1753.8438717000004,1753.8438717000004,1.0885416666666665,2.2213110000002416,1756.0712466,1760.0872660999999,1760.0872660999999,1760.0872660999999,1760.0872660999999,1760.0872660999999,None,1760.0872660999999,1760.0872660999999,1760.0872660999999,1760.0872660999999,None,,,,,,,101,1,-1,2023-02-20_10h13.31.440,Moral_Emotion_Task,2022.2.4,None,
丁怡,丁怡让邻居下海游泳。邻居,丁怡让邻居去海里游泳这种行为是：,3,badPhappyE,materials/situations/3.PNG,materials/happyreason/3.PNG,materials/badpropose/3.PNG,materials/happyending/3.PNG,0,54,54,54,,,,,,,,,,,,,1760.0872660999999,0.010802199999488948,[-0.013194444444444444],[-0.12638888888888888],[1],[0],[0],[1.6892341000002489],1761.7902194000003,0.013680600000043341,[-0.05625],[-0.14305555555555555],[1],[0],[0],[1.7893770999999106],1763.5910388999996,0.007457199999407749,[-0.05625],[-0.14305555555555555],[1],[0],[0],[1.5515227000005325],1765.1496965000001,1768.1563118,1770.4575811,1770.4575811,1770.4575811,1770.4575811,1.8645833333333333,2.77811550000024,1773.2353478,1778.2420900000002,1778.2420900000002,1778.2420900000002,1778.2420900000002,1778.2420900000002,None,1778.2420900000002,1778.2420900000002,1778.2420900000002,1778.2420900000002,None,,,,,,,101,1,-1,2023-02-20_10h13.31.440,Moral_Emotion_Task,2022.2.4,None,
马超,马超继续读着报纸。孩子,马超继续读着报纸这种行为：,44,badPsadE,materials/situations/44.PNG,materials/sadreason/44.PNG,materials/badpropose/44.PNG,materials/sadending/44.PNG,0,55,55,55,,,,,,,,,,,,,1778.2420900000002,0.010864400000173191,[-0.2923611111111111],[-0.16180555555555556],[1],[0],[0],[2.299583700000767],1780.5765485999996,0.0319934999997713,[-0.28402777777777777],[-0.13541666666666666],[1],[0],[0],[2.421568499999921],1783.0083423,0.009701599999971222,[],[],[],[],[],[],1785.3062894,1788.3184459,1790.6133267,1790.6133267,1790.6133267,1790.6133267,1.421875,2.3515937999991365,1792.9735543000002,1795.9769121000004,1795.9769121000004,1795.9769121000004,1795.9769121000004,1795.9769121000004,None,1795.9769121000004,1795.9769121000004,1795.9769121000004,1795.9769121000004,None,,,,,,,101,1,-1,2023-02-20_10h13.31.440,Moral_Emotion_Task,2022.2.4,None,
郑宇,郑宇没有阻止朋友开枪。子弹射中了,郑宇没有阻止朋友开枪这种行为：,26,badPhappyE,materials/situations/26.PNG,materials/happyreason/26.PNG,materials/badpropose/26.PNG,materials/happyending/26.PNG,0,56,56,56,,,,,,,,,,,,,1795.9769121000004,0.010704000000259839,[-0.16805555555555557],[-0.1597222222222222],[1],[0],[0],[1.7746138000002247],1797.7627736,0.010812999999870954,[-0.17569444444444443],[-0.1597222222222222],[1],[0],[0],[1.6654117000007318],1799.4377195000002,0.008378099999390543,[],[],[],[],[],[],1801.7312662,1804.7375544000001,1807.0385640999998,1807.0385640999998,1807.0385640999998,1807.0385640999998,5.223958333333334,3.1456170000001293,1810.1919009999997,1814.2013977000001,1814.2013977000001,1814.2013977000001,1814.2013977000001,1814.2013977000001,None,1814.2013977000001,1814.2013977000001,1814.2013977000001,1814.2013977000001,None,,,1807.0385640999998,1804.7375544000001,,,101,1,-1,2023-02-20_10h13.31.440,Moral_Emotion_Task,2022.2.4,None,
李浩,李浩不理会侄子胃疼。他的侄子很快就,李浩不理会侄子胃疼这种行为：,31,goodPhappyE,materials/situations/31.PNG,materials/happyreason/31.PNG,materials/goodpropose/31.PNG,materials/happyending/31.PNG,0,57,57,57,,,,,,,,,,,,,1814.2013977000001,0.01215649999994639,[0.018055555555555554],[-0.19791666666666666],[1],[0],[0],[1.830354400000033],1816.0496742,0.013900099999773374,[0.018055555555555554],[-0.19791666666666666],[1],[0],[0],[2.6139100999998846],1818.6710974000002,0.008104599999569473,[0.018055555555555554],[-0.19791666666666666],[1],[0],[0],[1.9255008999998608],1820.6009462999996,1823.6090676999997,1825.9262136000002,1825.9262136000002,1825.9262136000002,1825.9262136000002,2.5,2.132706800000051,1828.0573760000002,1834.0729673,1834.0729673,1834.0729673,1834.0729673,1834.0729673,None,1834.0729673,1834.0729673,1834.0729673,1834.0729673,None,,,,,,,101,1,-1,2023-02-20_10h13.31.440,Moral_Emotion_Task,2022.2.4,None,
孙泽,孙泽买了一袋菠菜给奶奶。他奶奶在晚饭上吃下了这些菠菜后,孙泽买了一袋菠菜给奶奶这种行为：,27,goodPsadE,materials/situations/27.PNG,materials/sadreason/27.PNG,materials/goodpropose/27.PNG,materials/sadending/27.PNG,0,58,58,58,,,,,,,,,,,,,1834.0729673,0.009995800000069721,[0.08611111111111111],[-0.11666666666666667],[1],[0],[0],[3.0347475999997187],1837.1177054000004,0.00888570000006439,[0.07847222222222222],[-0.11666666666666667],[1],[0],[0],[3.0610485999995944],1840.1862285000002,0.008210500000132015,[],[],[],[],[],[],1842.4916111999996,1845.4986986,1847.7995297000002,1847.7995297000002,1847.7995297000002,1847.7995297000002,1.4635416666666665,3.514606400000048,1851.3180102000001,1856.3286623999998,1856.3286623999998,1856.3286623999998,1856.3286623999998,1856.3286623999998,None,1856.3286623999998,1856.3286623999998,1856.3286623999998,1856.3286623999998,None,,,,,,,101,1,-1,2023-02-20_10h13.31.440,Moral_Emotion_Task,2022.2.4,None,
刘莎,刘莎把绳索卖给顾客。顾客使用这条绳索攀岩时,刘莎把绳索卖给顾客这种行为：,30,goodPsadE,materials/situations/30.PNG,materials/sadreason/30.PNG,materials/goodpropose/30.PNG,materials/sadending/30.PNG,0,59,59,59,,,,,,,,,,,,,1856.3286623999998,0.013831499999469088,[-0.07847222222222222],[-0.024305555555555556],[1],[0],[0],[2.207924099999218],1858.5487381999997,0.013535099999899103,[-0.09583333333333334],[-0.006944444444444444],[1],[0],[0],[2.5396780999999464],1861.1021326000005,0.0140425999998115,[],[],[],[],[],[],1863.3946602,1866.4050091000004,1868.7070079,1868.7070079,1868.7070079,1868.7070079,1.7447916666666665,4.011966500000199,1872.7270873000002,1878.7370026000003,1878.7370026000003,1878.7370026000003,1878.7370026000003,1878.7370026000003,None,1878.7370026000003,1878.7370026000003,1878.7370026000003,1878.7370026000003,None,,,,,,,101,1,-1,2023-02-20_10h13.31.440,Moral_Emotion_Task,2022.2.4,None,
王丽,王丽戴橡胶手套检查病人。病人,王丽戴橡胶手套检查病人这种行为是：,7,badPsadE,materials/situations/7.PNG,materials/sadreason/7.PNG,materials/badpropose/7.PNG,materials/sadending/7.PNG,0,60,60,60,,,,,,,,,,,,,1878.7370026000003,0.011287099999208294,[-0.13680555555555557],[-0.13333333333333333],[1],[0],[0],[2.0884226999996827],1880.8361363999998,0.009006299999782641,[-0.14444444444444443],[-0.13333333333333333],[1],[0],[0],[2.0667049000003317],1882.9191369000005,0.009953299999324372,[],[],[],[],[],[],1885.2059543999999,1888.2127022,1890.5193372999997,1890.5193372999997,1890.5193372999997,1890.5193372999997,1,3.2343776000006983,1893.7509875,1897.7568692,1897.7568692,1897.7568692,1897.7568692,1897.7568692,None,1897.7568692,1897.7568692,1897.7568692,1897.7568692,None,,,,1888.2127022,,,101,1,-1,2023-02-20_10h13.31.440,Moral_Emotion_Task,2022.2.4,None,
程峰,程峰没有提醒客户。客户继续使用这台电脑,程峰没有提醒客户这种行为：,48,goodPhappyE,materials/situations/48.PNG,materials/happyreason/48.PNG,materials/goodpropose/48.PNG,materials/happyending/48.PNG,0,61,61,61,,,,,,,,,,,,,1897.7568692,0.012422800000422285,[-0.2916666666666667],[-0.1423611111111111],[1],[0],[0],[2.149184900000364],1899.9185835000003,0.009407800000190036,[-0.2916666666666667],[-0.1423611111111111],[1],[0],[0],[2.102640000000065],1902.0315167000003,0.012828699999772653,[],[],[],[],[],[],1904.3347003000003,1907.3370562000005,1909.6400085999999,1909.6400085999999,1909.6400085999999,1909.6400085999999,3.229166666666667,1.7810373999991498,1911.4278477000003,1917.4405749000002,1917.4405749000002,1917.4405749000002,1917.4405749000002,1917.4405749000002,None,1917.4405749000002,1917.4405749000002,1917.4405749000002,1917.4405749000002,None,,,,,,,101,1,-1,2023-02-20_10h13.31.440,Moral_Emotion_Task,2022.2.4,None,
马慧,马慧没有阻止堂兄走进厨房。她的堂兄,马慧没有阻止堂兄进厨房这种行为是：,21,badPhappyE,materials/situations/21.PNG,materials/happyreason/21.PNG,materials/badpropose/21.PNG,materials/happyending/21.PNG,0,62,62,62,,,,,,,,,,,,,1917.4405749000002,0.01075200000013865,[-0.11041666666666666],[-0.16319444444444445],[1],[0],[0],[2.4245727999996234],1919.8759973,0.009276700000555138,[-0.11041666666666666],[-0.17916666666666667],[1],[0],[0],[2.611952499999461],1922.5004881999998,0.011510299999827112,[-0.11041666666666666],[-0.17916666666666667],[1],[0],[0],[2.286316199999419],1924.7919989999996,1927.8038406,1930.1071969,1930.1071969,1930.1071969,1930.1071969,2.4895833333333335,1.5912883000000875,1931.694376,1936.7090320000002,1936.7090320000002,1936.7090320000002,1936.7090320000002,1936.7090320000002,None,1936.7090320000002,1936.7090320000002,1936.7090320000002,1936.7090320000002,None,,,,,,,101,1,-1,2023-02-20_10h13.31.440,Moral_Emotion_Task,2022.2.4,None,
胡梅,胡梅把新降落伞给顾客。顾客使用这把降落伞时,胡梅把新降落伞给顾客这种行为：,38,badPsadE,materials/situations/38.PNG,materials/sadreason/38.PNG,materials/badpropose/38.PNG,materials/sadending/38.PNG,0,63,63,63,,,,,,,,,,,,,1936.7090320000002,0.008718099999896367,[-0.20208333333333334],[-0.18888888888888888],[1],[0],[0],[2.1035783999996056],1938.8243079,0.012343399999735993,[-0.20208333333333334],[-0.18888888888888888],[1],[0],[0],[1.935791099999733],1940.7734839,0.008710699999937788,[],[],[],[],[],[],1943.0663054000001,1946.0717577,1948.3758433999997,1948.3758433999997,1948.3758433999997,1948.3758433999997,1.7187500000000004,1.564955099999679,1949.9485572999997,1953.9536501999996,1953.9536501999996,1953.9536501999996,1953.9536501999996,1953.9536501999996,None,1953.9536501999996,1953.9536501999996,1953.9536501999996,1953.9536501999996,None,,,,1946.0717577,,,101,1,-1,2023-02-20_10h13.31.440,Moral_Emotion_Task,2022.2.4,None,
罗兰,罗兰把蘑菇给朋友吃。罗兰的朋友,罗兰把蘑菇送给朋友吃这种行为是：,6,badPsadE,materials/situations/6.PNG,materials/sadreason/6.PNG,materials/badpropose/6.PNG,materials/sadending/6.PNG,0,64,64,64,,,,,,,,,,,,,1953.9536501999996,0.008900400000129594,[-0.30416666666666664],[-0.18888888888888888],[1],[0],[0],[2.893403200000648],1956.8568505999997,0.009043399999427493,[-0.30416666666666664],[-0.18888888888888888],[1],[0],[0],[1.4339502999991964],1958.3023031999996,0.007874799999626703,[-0.32916666666666666],[-0.18958333333333333],[1],[0],[0],[1.3356252999992648],1959.640941,1962.6545979999996,1964.9527454000004,1964.9527454000004,1964.9527454000004,1964.9527454000004,1.1302083333333335,4.280174600000464,1969.2318060000002,1972.2385288,1972.2385288,1972.2385288,1972.2385288,1972.2385288,None,1972.2385288,1972.2385288,1972.2385288,1972.2385288,None,,,,,,,101,1,-1,2023-02-20_10h13.31.440,Moral_Emotion_Task,2022.2.4,None,
李贝,李贝把这些肉给孩子们吃。孩子们,李贝把这些肉给孩子们吃这种行为是：,14,badPhappyE,materials/situations/14.PNG,materials/happyreason/14.PNG,materials/badpropose/14.PNG,materials/happyending/14.PNG,0,65,65,65,,,,,,,,,,,,,1972.2385288,0.00860610000017914,[-0.06736111111111111],[-0.125],[1],[0],[0],[1.9068483000000924],1974.1563757999998,0.009833600000092702,[0.001388888888888889],[-0.06388888888888888],[1],[0],[0],[2.421943800000008],1976.5914960000005,0.010120100000676757,[],[],[],[],[],[],1978.8933607000004,1981.8916452999997,1984.2057399,1984.2057399,1984.2057399,1984.2057399,1.9166666666666667,2.2306188000002294,1986.4630363,1989.4757092000004,1989.4757092000004,1989.4757092000004,1989.4757092000004,1989.4757092000004,None,1989.4757092000004,1989.4757092000004,1989.4757092000004,1989.4757092000004,None,,,,,,,101,1,-1,2023-02-20_10h13.31.440,Moral_Emotion_Task,2022.2.4,None,
马超,马超继续读着报纸。孩子,马超继续读着报纸这种行为：,44,badPhappyE,materials/situations/44.PNG,materials/happyreason/44.PNG,materials/badpropose/44.PNG,materials/happyending/44.PNG,0,66,66,66,,,,,,,,,,,,,1989.4757092000004,0.010593799999696785,[-0.26875],[-0.20208333333333334],[1],[0],[0],[3.3207368000003044],1992.8092780000002,0.012578299999404408,[-0.26944444444444443],[-0.20208333333333334],[1],[0],[0],[3.421579400000155],1996.2428384999998,0.008805000000393193,[],[],[],[],[],[],1998.5467139999996,2001.5422039999999,2003.8454693999997,2003.8454693999997,2003.8454693999997,2003.8454693999997,2.854166666666667,1.96392939999987,2005.8175196999996,2008.8237210000002,2008.8237210000002,2008.8237210000002,2008.8237210000002,2008.8237210000002,None,2008.8237210000002,2008.8237210000002,2008.8237210000002,2008.8237210000002,None,,,2003.8454693999997,,,,101,1,-1,2023-02-20_10h13.31.440,Moral_Emotion_Task,2022.2.4,None,
郑宇,郑宇没有阻止朋友开枪。子弹射中了,郑宇没有阻止朋友开枪这种行为：,26,goodPsadE,materials/situations/26.PNG,materials/sadreason/26.PNG,materials/goodpropose/26.PNG,materials/sadending/26.PNG,0,67,67,67,,,,,,,,,,,,,2008.8237210000002,0.010534699999880104,[-0.16180555555555556],[-0.12708333333333333],[1],[0],[0],[2.6266000999994503],2011.4649882999997,0.014566299999387411,[-0.09930555555555555],[-0.23125],[1],[0],[0],[4.07847110000057],2015.5543122000004,0.009738699999616074,[],[],[],[],[],[],2017.8516562999998,2020.8543832999999,2023.1571896,2023.1571896,2023.1571896,2023.1571896,1.9010416666666665,4.491946000000098,2027.6629748999999,2030.6728439000003,2030.6728439000003,2030.6728439000003,2030.6728439000003,2030.6728439000003,None,2030.6728439000003,2030.6728439000003,2030.6728439000003,2030.6728439000003,None,,,,2020.8543832999999,,,101,1,-1,2023-02-20_10h13.31.440,Moral_Emotion_Task,2022.2.4,None,
韩珍,韩珍悄悄走开。小孩,韩珍悄悄走开这种行为是：,5,badPsadE,materials/situations/5.PNG,materials/sadreason/5.PNG,materials/badpropose/5.PNG,materials/sadending/5.PNG,0,68,68,68,,,,,,,,,,,,,2030.6728439000003,0.008392200000344019,[-0.15833333333333333],[-0.19583333333333333],[1],[0],[0],[2.419412000000193],2033.1054651999998,0.008417099999860511,[-0.17569444444444443],[-0.15416666666666667],[1],[0],[0],[2.3146460999996634],2035.4334664000003,0.013294499999574327,[],[],[],[],[],[],2037.7397956,2040.7411765000002,2043.0344277,2043.0344277,2043.0344277,2043.0344277,2.3020833333333335,2.5004971999996997,2045.5424082000004,2050.5579327,2050.5579327,2050.5579327,2050.5579327,2050.5579327,None,2050.5579327,2050.5579327,2050.5579327,2050.5579327,None,,,,,,,101,1,-1,2023-02-20_10h13.31.440,Moral_Emotion_Task,2022.2.4,None,
何伟,何伟让客人进入实验室。客人,何伟让客人进入实验室这种行为：,2,badPhappyE,materials/situations/2.PNG,materials/happyreason/2.PNG,materials/badpropose/2.PNG,materials/happyending/2.PNG,0,69,69,69,,,,,,,,,,,,,2050.5579327,0.010052499999801512,[0.049305555555555554],[-0.1284722222222222],[1],[0],[0],[2.8203448000003846],2053.3961311,0.0144758999995247,[0.049305555555555554],[-0.1284722222222222],[1],[0],[0],[2.0943422000000282],2055.5014297000002,0.007984900000337802,[],[],[],[],[],[],2057.8087357,2060.8081779999998,2063.1117479,2063.1117479,2063.1117479,2063.1117479,2.7760416666666665,3.0781419999993886,2066.1984077,2072.2110877,2072.2110877,2072.2110877,2072.2110877,2072.2110877,None,2072.2110877,2072.2110877,2072.2110877,2072.2110877,None,,,,,,,101,1,-1,2023-02-20_10h13.31.440,Moral_Emotion_Task,2022.2.4,None,
陈杰,陈杰离开家去见朋友。警报一直在响，房屋,陈杰离开家去见朋友这种行为：,29,goodPhappyE,materials/situations/29.PNG,materials/happyreason/29.PNG,materials/goodpropose/29.PNG,materials/happyending/29.PNG,0,70,70,70,,,,,,,,,,,,,2072.2110877,0.011860300000080315,[-0.16319444444444445],[-0.1909722222222222],[1],[0],[0],[2.884892599999148],2075.1109266999997,0.013427599999886297,[-0.16319444444444445],[-0.18333333333333332],[1],[0],[0],[2.9049661999997625],2078.0290966,0.01070759999947768,[],[],[],[],[],[],2080.3338896,2083.3386432,2085.6363233999996,2085.6363233999996,2085.6363233999996,2085.6363233999996,2.8177083333333335,4.883290099999613,2090.5186038999996,2093.52234,2093.52234,2093.52234,2093.52234,2093.52234,None,2093.52234,2093.52234,2093.52234,2093.52234,None,,,,,,,101,1,-1,2023-02-20_10h13.31.440,Moral_Emotion_Task,2022.2.4,None,
刘芸,刘芸喂侄女米粉。小女孩吃下米粉后,刘芸喂侄女米粉这种行为：,36,badPhappyE,materials/situations/36.PNG,materials/happyreason/36.PNG,materials/badpropose/36.PNG,materials/happyending/36.PNG,0,71,71,71,,,,,,,,,,,,,2093.52234,0.01124820000040927,[-0.15694444444444444],[-0.22430555555555556],[1],[0],[0],[2.7409137000004193],2096.2776018,0.01397499999984575,[-0.16527777777777777],[-0.22430555555555556],[1],[0],[0],[2.420462199999747],2098.7106842999997,0.012949500000104308,[],[],[],[],[],[],2101.053708,2104.0241817,2106.3311887000004,2106.3311887000004,2106.3311887000004,2106.3311887000004,1.348958333333333,3.0274663000000146,2109.3558764000004,2115.3581981,2115.3581981,2115.3581981,2115.3581981,2115.3581981,None,2115.3581981,2115.3581981,2115.3581981,2115.3581981,None,,,,,,,101,1,-1,2023-02-20_10h13.31.440,Moral_Emotion_Task,2022.2.4,None,
乔南,乔南点燃熏香。毒气充斥着整座房屋，把害虫都杀光了。邻居的妈妈,乔南点燃熏香这种行为：,35,goodPsadE,materials/situations/35.PNG,materials/sadreason/35.PNG,materials/goodpropose/35.PNG,materials/sadending/35.PNG,0,72,72,72,,,,,,,,,,,,,2115.3581981,0.009989600000153587,[-0.35347222222222224],[-0.22569444444444445],[1],[0],[0],[2.7392597999996724],2118.1103624,0.013031599999521859,[-0.35347222222222224],[-0.22569444444444445],[1],[0],[0],[2.9120241000000533],2121.0316497,0.010072799999761628,[],[],[],[],[],[],2123.3433067,2126.3398518999998,2128.6402771,2128.6402771,2128.6402771,2128.6402771,1.1458333333333335,2.5666597999997975,2131.2165,2135.2244455000005,2135.2244455000005,2135.2244455000005,2135.2244455000005,2135.2244455000005,None,2135.2244455000005,2135.2244455000005,2135.2244455000005,2135.2244455000005,None,,,,,,,101,1,-1,2023-02-20_10h13.31.440,Moral_Emotion_Task,2022.2.4,None,
陈强,陈强挥手让堂兄去捡球。堂兄跑去捡球，,陈强挥手让堂兄去捡球这种行为：,37,badPsadE,materials/situations/37.PNG,materials/sadreason/37.PNG,materials/badpropose/37.PNG,materials/sadending/37.PNG,0,73,73,73,,,,,,,,,,,,,2135.2244455000005,0.010162399999899208,[-0.38055555555555554],[-0.19930555555555557],[1],[0],[0],[3.0761904999999388],2138.3089507,0.008585900000070978,[-0.3638888888888889],[-0.19930555555555557],[1],[0],[0],[1.5873639999999796],2139.9083429999996,0.009055399999851943,[],[],[],[],[],[],2142.2132021,2145.2102428000003,2147.5190154999996,2147.5190154999996,2147.5190154999996,2147.5190154999996,2.34375,3.520205299999361,2151.0401921999996,2155.0488318000002,2155.0488318000002,2155.0488318000002,2155.0488318000002,2155.0488318000002,None,2155.0488318000002,2155.0488318000002,2155.0488318000002,2155.0488318000002,None,,,,,,,101,1,-1,2023-02-20_10h13.31.440,Moral_Emotion_Task,2022.2.4,None,
赵智,赵智默默离开。挥手那人,赵智默默离开这种行为是：,8,goodPsadE,materials/situations/8.PNG,materials/sadreason/8.PNG,materials/goodpropose/8.PNG,materials/sadending/8.PNG,0,74,74,74,,,,,,,,,,,,,2155.0488318000002,0.01145989999986341,[-0.17708333333333334],[-0.17847222222222223],[1],[0],[0],[2.2800139999999374],2157.3400039000003,0.009562299999743118,[-0.17708333333333334],[-0.17847222222222223],[1],[0],[0],[1.3700410999999804],2158.7265976000003,0.011936100000639271,[-0.17708333333333334],[-0.17847222222222223],[1],[0],[0],[1.0393635000000359],2159.7688433999997,2162.7831073,2165.0880512,2165.0880512,2165.0880512,2165.0880512,1.5104166666666665,1.2017271000004257,2166.2943170000003,2170.2967334,2170.2967334,,2170.2967334,,space,2245.6903846,,2245.6903846,,s,,,,,17.329582599999867,75.3831355999996,101,1,-1,2023-02-20_10h13.31.440,Moral_Emotion_Task,2022.2.4,None,
李明,李明继续开车回家。这个路人,李明继续开车回家这种行为是：,9,goodPsadE,materials/situations/9.PNG,materials/sadreason/9.PNG,materials/goodpropose/9.PNG,materials/sadending/9.PNG,0,75,75,75,,,,,,,,,,,,,2263.0537692000003,0.01372189999983675,[0.1326388888888889],[-0.12638888888888888],[1],[0],[0],[3.692195900000115],2266.7536532999998,0.009678600000370352,[0.1326388888888889],[-0.12638888888888888],[1],[0],[0],[1.5518757999998343],2268.3245227,0.012518700000327954,[0.1326388888888889],[-0.12638888888888888],[1],[0],[0],[1.7180851000002804],2270.0463106,2273.0556651,2275.3577349,2275.3577349,2275.3577349,2275.3577349,2.6302083333333335,2.106671400000778,2277.4702534000003,2283.4791305000003,2283.4791305000003,2283.4791305000003,2283.4791305000003,2283.4791305000003,None,2283.4791305000003,2283.4791305000003,2283.4791305000003,2283.4791305000003,None,,,,2273.0556651,,,101,1,-1,2023-02-20_10h13.31.440,Moral_Emotion_Task,2022.2.4,None,
陈钢,陈钢同意飞机起飞。飞机,陈钢没有再要求清理跑道这种行为是：,16,goodPhappyE,materials/situations/16.PNG,materials/happyreason/16.PNG,materials/goodpropose/16.PNG,materials/happyending/16.PNG,0,76,76,76,,,,,,,,,,,,,2283.4791305000003,0.012629500000002736,[-0.14583333333333334],[-0.12083333333333333],[1],[0],[0],[3.035261399999399],2286.5421786,0.01618750000034197,[-0.14583333333333334],[-0.12083333333333333],[1],[0],[0],[1.6719329999996262],2288.2231730999997,0.01544099999955506,[-0.14583333333333334],[-0.12083333333333333],[1],[0],[0],[2.086934900000415],2290.311867,2293.3272547,2295.633007,2295.633007,2295.633007,2295.633007,5.953125,1.9249536000006628,2297.5606602000003,2301.5694270999998,2301.5694270999998,2301.5694270999998,2301.5694270999998,2301.5694270999998,None,2301.5694270999998,2301.5694270999998,2301.5694270999998,2301.5694270999998,None,,,,2293.3272547,,,101,1,-1,2023-02-20_10h13.31.440,Moral_Emotion_Task,2022.2.4,None,
李贝,李贝把这些肉给孩子们吃。孩子们,李贝把这些肉给孩子们吃这种行为是：,14,goodPhappyE,materials/situations/14.PNG,materials/happyreason/14.PNG,materials/goodpropose/14.PNG,materials/happyending/14.PNG,0,77,77,77,,,,,,,,,,,,,2301.5694270999998,0.011941699999624689,[0.24444444444444444],[-0.19652777777777777],[1],[0],[0],[2.0473666999996567],2303.6268631,0.010475500000211468,[0.2361111111111111],[-0.19652777777777777],[1],[0],[0],[1.4288555000002816],2305.0722376,0.01297340000019176,[0.2361111111111111],[-0.19652777777777777],[1],[0],[0],[1.706816699999763],2306.7840945000003,2309.7972001000003,2312.1050649000003,2312.1050649000003,2312.1050649000003,2312.1050649000003,3.9635416666666665,3.028222099999766,2315.1287737999996,2318.1369066,2318.1369066,2318.1369066,2318.1369066,2318.1369066,None,2318.1369066,2318.1369066,2318.1369066,2318.1369066,None,,,,2309.7972001000003,,,101,1,-1,2023-02-20_10h13.31.440,Moral_Emotion_Task,2022.2.4,None,
史琴,史琴给朋友系上安全带。她的朋友,史琴给朋友系上安全带这种行为是：,18,badPsadE,materials/situations/18.PNG,materials/sadreason/18.PNG,materials/badpropose/18.PNG,materials/sadending/18.PNG,0,78,78,78,,,,,,,,,,,,,2318.1369066,0.012207900000248628,[-0.004861111111111111],[-0.18263888888888888],[1],[0],[0],[1.9532988999999361],2320.0986331999998,0.01053920000049402,[-0.004861111111111111],[-0.18263888888888888],[1],[0],[0],[3.025329399999464],2323.1424832,0.011547699999937322,[],[],[],[],[],[],2325.4495884000003,2328.4497663999996,2330.7584351,2330.7584351,2330.7584351,2330.7584351,1.4166666666666665,1.3107482000004893,2332.0561194999996,2336.0620808,2336.0620808,2336.0620808,2336.0620808,2336.0620808,None,2336.0620808,2336.0620808,2336.0620808,2336.0620808,None,,,,,,,101,1,-1,2023-02-20_10h13.31.440,Moral_Emotion_Task,2022.2.4,None,
程峰,程峰没有提醒客户。客户继续使用这台电脑,程峰没有提醒客户这种行为：,48,badPhappyE,materials/situations/48.PNG,materials/happyreason/48.PNG,materials/badpropose/48.PNG,materials/happyending/48.PNG,0,79,79,79,,,,,,,,,,,,,2336.0620808,0.012758800000483461,[0.08958333333333333],[-0.1361111111111111],[1],[0],[0],[2.6211694999992687],2338.7004567,0.01722269999936543,[0.07152777777777777],[-0.1451388888888889],[1],[0],[0],[2.2161005999996632],2340.9363512000004,0.014154599999528727,[0.03888888888888889],[-0.15486111111111112],[1],[0],[0],[1.7997212000000218],2342.7408852000003,2345.7608462000003,2348.0580877999996,2348.0580877999996,2348.0580877999996,2348.0580877999996,2.875,1.60990159999983,2349.6690133999996,2354.6925187,2354.6925187,2354.6925187,2354.6925187,2354.6925187,None,2354.6925187,2354.6925187,2354.6925187,2354.6925187,None,,,,,,,101,1,-1,2023-02-20_10h13.31.440,Moral_Emotion_Task,2022.2.4,None,
许乐,许乐让男朋友去碎浪那边游泳。她的男朋友,许乐让男朋友去碎浪那边游泳这种行为：,42,goodPhappyE,materials/situations/42.PNG,materials/happyreason/42.PNG,materials/goodpropose/42.PNG,materials/happyending/42.PNG,0,80,80,80,,,,,,,,,,,,,2354.6925187,0.01707040000019333,[-0.09097222222222222],[-0.1527777777777778],[1],[0],[0],[2.712602899999183],2357.4174644,0.012649999999666761,[-0.08263888888888889],[-0.16944444444444445],[1],[0],[0],[3.000087300000814],2360.4341870000003,0.01749310000013793,[],[],[],[],[],[],2362.7231763000004,2365.7364181,2368.0400929,2368.0400929,2368.0400929,2368.0400929,3.0,1.6687503000002835,2369.7049259,2374.725811,2374.725811,2374.725811,2374.725811,2374.725811,None,2374.725811,2374.725811,2374.725811,2374.725811,None,,,,,,,101,1,-1,2023-02-20_10h13.31.440,Moral_Emotion_Task,2022.2.4,None,
方远,方远只顾自己继续吃饭。那名顾客,方远只顾自己继续吃饭这种行为：,43,badPsadE,materials/situations/43.PNG,materials/sadreason/43.PNG,materials/badpropose/43.PNG,materials/sadending/43.PNG,0,81,81,81,,,,,,,,,,,,,2374.725811,0.017554899999595364,[-0.00625],[-0.19444444444444445],[1],[0],[0],[2.3835844000004727],2377.1257683999997,0.014702899999974761,[-0.00625],[-0.19444444444444445],[1],[0],[0],[1.4273103999994419],2378.5662723,0.013821200000165845,[],[],[],[],[],[],2380.8694351999998,2383.8774575,2386.1870057,2386.1870057,2386.1870057,2386.1870057,3.0572916666666665,2.737823500000559,2388.9169278000004,2394.9425233999996,2394.9425233999996,2394.9425233999996,2394.9425233999996,2394.9425233999996,None,2394.9425233999996,2394.9425233999996,2394.9425233999996,2394.9425233999996,None,,,,,,,101,1,-1,2023-02-20_10h13.31.440,Moral_Emotion_Task,2022.2.4,None,
舒玲,舒玲把车借给同学。舒玲的同学,舒玲把自行车借给同学这种行为是：,12,badPhappyE,materials/situations/12.PNG,materials/happyreason/12.PNG,materials/badpropose/12.PNG,materials/happyending/12.PNG,0,82,82,82,,,,,,,,,,,,,2394.9425233999996,0.015671399999519053,[-0.18472222222222223],[-0.18055555555555555],[1],[0],[0],[2.16276039999957],2397.1211811,0.016267099999822676,[-0.21805555555555556],[-0.16458333333333333],[1],[0],[0],[1.8818134000002829],2399.0203075000004,0.017489900000327907,[],[],[],[],[],[],2401.3069984,2404.3165368000004,2406.6181357,2406.6181357,2406.6181357,2406.6181357,2.901041666666667,6.07603250000011,2412.7102649000003,2415.7251551000004,2415.7251551000004,2415.7251551000004,2415.7251551000004,2415.7251551000004,None,2415.7251551000004,2415.7251551000004,2415.7251551000004,2415.7251551000004,None,,,,2404.3165368000004,,,101,1,-1,2023-02-20_10h13.31.440,Moral_Emotion_Task,2022.2.4,None,
蒋文,蒋文没有管他妹妹。他的妹妹自己开车,蒋文没有管他妹妹这种行为：,32,badPsadE,materials/situations/32.PNG,materials/sadreason/32.PNG,materials/badpropose/32.PNG,materials/sadending/32.PNG,0,83,83,83,,,,,,,,,,,,,2415.7251551000004,0.016982799999823328,[-0.03194444444444444],[-0.09097222222222222],[1],[0],[0],[1.8481019000000742],2417.5920854,0.016543999999157677,[-0.03194444444444444],[-0.09097222222222222],[1],[0],[0],[2.5063601000001654],2420.1080051000004,0.009589299999788636,[],[],[],[],[],[],2422.4133976,2425.4266574,2427.7267263,2427.7267263,2427.7267263,2427.7267263,1.671875,2.38199159999931,2430.1069552000004,2433.1176874,2433.1176874,2433.1176874,2433.1176874,2433.1176874,None,2433.1176874,2433.1176874,2433.1176874,2433.1176874,None,,,,,,,101,1,-1,2023-02-20_10h13.31.440,Moral_Emotion_Task,2022.2.4,None,
王齐,王齐向同事推荐金枪鱼。他的一个同事吃了这道菜后，,王齐向同事推荐金枪鱼这种行为：,33,goodPsadE,materials/situations/33.PNG,materials/sadreason/33.PNG,materials/goodpropose/33.PNG,materials/sadending/33.PNG,0,84,84,84,,,,,,,,,,,,,2433.1176874,0.015723499999694468,[-0.10347222222222222],[-0.11180555555555556],[1],[0],[0],[2.6028403999998773],2435.7349625,0.013248899999780406,[-0.10347222222222222],[-0.11180555555555556],[1],[0],[0],[1.9149907000000894],2437.6675788,0.013246100000287697,[-0.11180555555555556],[-0.11180555555555556],[1],[0],[0],[1.9739356000000043],2439.6485274,2442.6507804,2444.9648586999997,2444.9648586999997,2444.9648586999997,2444.9648586999997,2.3020833333333335,2.1986102000000756,2447.1631071999996,2452.1804973000003,2452.1804973000003,2452.1804973000003,2452.1804973000003,2452.1804973000003,None,2452.1804973000003,2452.1804973000003,2452.1804973000003,2452.1804973000003,None,,,,2442.6507804,,,101,1,-1,2023-02-20_10h13.31.440,Moral_Emotion_Task,2022.2.4,None,
何伟,何伟让客人进入实验室。客人,何伟让客人进入实验室这种行为：,2,badPsadE,materials/situations/2.PNG,materials/sadreason/2.PNG,materials/badpropose/2.PNG,materials/sadending/2.PNG,0,85,85,85,,,,,,,,,,,,,2452.1804973000003,0.021733700000368117,[-0.0020833333333333333],[-0.10416666666666667],[1],[0],[0],[2.184624900000017],2454.3833659999996,0.017129799999565876,[-0.0020833333333333333],[-0.10416666666666667],[1],[0],[0],[1.7725791000002573],2456.1686594999996,0.010658399999556423,[],[],[],[],[],[],2458.47535,2461.4889779,2463.7823378999997,2463.7823378999997,2463.7823378999997,2463.7823378999997,1.0,3.1447132000002966,2466.9260333999996,2472.9386081999996,2472.9386081999996,2472.9386081999996,2472.9386081999996,2472.9386081999996,None,2472.9386081999996,2472.9386081999996,2472.9386081999996,2472.9386081999996,None,,,,,,,101,1,-1,2023-02-20_10h13.31.440,Moral_Emotion_Task,2022.2.4,None,
左艳,左艳让孩子坐上缆车。孩子,左艳让孩子坐上缆车这种行为是：,23,goodPsadE,materials/situations/23.PNG,materials/sadreason/23.PNG,materials/goodpropose/23.PNG,materials/sadending/23.PNG,0,86,86,86,,,,,,,,,,,,,2472.9386081999996,0.01875249999920925,[-0.09791666666666667],[-0.04097222222222222],[1],[0],[0],[2.117318100000375],2475.0704861,0.013736899999457819,[-0.09791666666666667],[-0.04097222222222222],[1],[0],[0],[2.1497761000000537],2477.2349412999997,0.011300500000288594,[],[],[],[],[],[],2479.5322874,2482.5458830000002,2484.8442450999996,2484.8442450999996,2484.8442450999996,2484.8442450999996,1.640625,2.5290234000003693,2487.3729011,2490.3832263,2490.3832263,2490.3832263,2490.3832263,2490.3832263,None,2490.3832263,2490.3832263,2490.3832263,2490.3832263,None,,,,,,,101,1,-1,2023-02-20_10h13.31.440,Moral_Emotion_Task,2022.2.4,None,
乔南,乔南点燃熏香。毒气充斥着整座房屋，把害虫都杀光了。邻居的妈妈,乔南点燃熏香这种行为：,35,goodPhappyE,materials/situations/35.PNG,materials/happyreason/35.PNG,materials/goodpropose/35.PNG,materials/happyending/35.PNG,0,87,87,87,,,,,,,,,,,,,2490.3832263,0.015873399999691173,[-0.2638888888888889],[-0.16944444444444445],[1],[0],[0],[2.2826858999997057],2492.6777177,0.0108488000005309,[-0.24722222222222223],[-0.16111111111111112],[1],[0],[0],[2.007955000000038],2494.7029135999996,0.017526599999655446,[-0.25555555555555554],[-0.14375],[1],[0],[0],[1.940095900000415],2496.6498538,2499.6561445,2501.9769373000004,2501.9769373000004,2501.9769373000004,2501.9769373000004,2.609375,2.357875900000181,2504.3383629000004,2508.3514235,2508.3514235,2508.3514235,2508.3514235,2508.3514235,None,2508.3514235,2508.3514235,2508.3514235,2508.3514235,None,,,,2499.6561445,,,101,1,-1,2023-02-20_10h13.31.440,Moral_Emotion_Task,2022.2.4,None,
徐雷,徐雷让女朋友过桥。徐雷的女朋友,徐雷让女朋友过桥这种行为是：,4,goodPhappyE,materials/situations/4.PNG,materials/happyreason/4.PNG,materials/goodpropose/4.PNG,materials/happyending/4.PNG,0,88,88,88,,,,,,,,,,,,,2508.3514235,0.017727999999806343,[-0.20277777777777778],[-0.19583333333333333],[1],[0],[0],[2.399797399999443],2510.7665541,0.013868000000002212,[-0.20277777777777778],[-0.19583333333333333],[1],[0],[0],[1.6103596000002653],2512.3894508999997,0.010758200000054785,[],[],[],[],[],[],2514.6952462000004,2517.7044982,2520.0127083,2520.0127083,2520.0127083,2520.0127083,6.119791666666667,1.6275378000000273,2521.6352254,2526.6541608,2526.6541608,2526.6541608,2526.6541608,2526.6541608,None,2526.6541608,2526.6541608,2526.6541608,2526.6541608,None,,,,,,,101,1,-1,2023-02-20_10h13.31.440,Moral_Emotion_Task,2022.2.4,None,
杨鹏,杨鹏马上让妻子吃药。他的妻子,杨鹏马上让妻子吃药这种行为是：,10,badPsadE,materials/situations/10.PNG,materials/sadreason/10.PNG,materials/badpropose/10.PNG,materials/sadending/10.PNG,0,89,89,89,,,,,,,,,,,,,2526.6541608,0.02025210000010702,[0.275],[-0.2590277777777778],[1],[0],[0],[1.6607977000003302],2528.330955,0.016788899999482965,[0.3347222222222222],[-0.23333333333333334],[1],[0],[0],[1.2927620999998908],2529.6380151,0.010580499999377935,[0.3506944444444444],[-0.25],[1],[0],[0],[1.4301488000000973],2531.0769458,2534.0970443,2536.398125,2536.398125,2536.398125,2536.398125,1.0520833333333335,2.3082523000002766,2538.7026246,2543.7138403000004,2543.7138403000004,2543.7138403000004,2543.7138403000004,2543.7138403000004,None,2543.7138403000004,2543.7138403000004,2543.7138403000004,2543.7138403000004,None,,,,,,,101,1,-1,2023-02-20_10h13.31.440,Moral_Emotion_Task,2022.2.4,None,
马超,马超继续读着报纸。孩子,马超继续读着报纸这种行为：,44,goodPsadE,materials/situations/44.PNG,materials/sadreason/44.PNG,materials/goodpropose/44.PNG,materials/sadending/44.PNG,0,90,90,90,,,,,,,,,,,,,2543.7138403000004,0.012272199999642908,[-0.38472222222222224],[-0.16319444444444445],[1],[0],[0],[1.7838592999996763],2545.5068833,0.01387449999947421,[-0.30833333333333335],[-0.15486111111111112],[1],[0],[0],[2.4628644000003987],2547.9875165,0.014419699999962177,[],[],[],[],[],[],2550.2896766,2553.2855606,2555.5992411,2555.5992411,2555.5992411,2555.5992411,3.458333333333333,3.104434500000025,2558.7019588,2561.7167895,2561.7167895,2561.7167895,2561.7167895,2561.7167895,None,2561.7167895,2561.7167895,2561.7167895,2561.7167895,None,,,,,,,101,1,-1,2023-02-20_10h13.31.440,Moral_Emotion_Task,2022.2.4,None,
方远,方远只顾自己继续吃饭。那名顾客,方远只顾自己继续吃饭这种行为：,43,goodPhappyE,materials/situations/43.PNG,materials/happyreason/43.PNG,materials/goodpropose/43.PNG,materials/happyending/43.PNG,0,91,91,91,,,,,,,,,,,,,2561.7167895,0.018444999999701395,[-0.14930555555555555],[-0.10902777777777778],[1],[0],[0],[2.204927700000553],2563.933052,0.010846199999832606,[-0.15902777777777777],[-0.1076388888888889],[1],[0],[0],[1.0285282000004372],2564.9820613999996,0.017693199999484932,[],[],[],[],[],[],2567.2819292,2570.2950403,2572.5873864,2572.5873864,2572.5873864,2572.5873864,4.421875,3.715168600000652,2576.3121380999996,2581.3166428,2581.3166428,2581.3166428,2581.3166428,2581.3166428,None,2581.3166428,2581.3166428,2581.3166428,2581.3166428,None,,,,,,,101,1,-1,2023-02-20_10h13.31.440,Moral_Emotion_Task,2022.2.4,None,
陈钢,陈钢同意飞机起飞。飞机,陈钢没有再要求清理跑道这种行为是：,16,goodPsadE,materials/situations/16.PNG,materials/sadreason/16.PNG,materials/goodpropose/16.PNG,materials/sadending/16.PNG,0,92,92,92,,,,,,,,,,,,,2581.3166428,0.012668100000155391,[0.02847222222222222],[-0.1638888888888889],[1],[0],[0],[2.7111669999994774],2584.0448989,0.013808400000016263,[0.02847222222222222],[-0.1638888888888889],[1],[0],[0],[1.6255976000002192],2585.6878564000003,0.015247100000124192,[],[],[],[],[],[],2587.9872315,2590.9912933,2593.2913758,2593.2913758,2593.2913758,2593.2913758,1.369791666666667,1.9134762999992745,2595.2056519000002,2599.2179051999997,2599.2179051999997,2599.2179051999997,2599.2179051999997,2599.2179051999997,None,2599.2179051999997,2599.2179051999997,2599.2179051999997,2599.2179051999997,None,,,,,,,101,1,-1,2023-02-20_10h13.31.440,Moral_Emotion_Task,2022.2.4,None,
赵晨,赵晨鼓励朋友下去游泳。赵晨的朋友在池塘,赵晨鼓励朋友下去游泳这种行为：,25,goodPsadE,materials/situations/25.PNG,materials/sadreason/25.PNG,materials/goodpropose/25.PNG,materials/sadending/25.PNG,0,93,93,93,,,,,,,,,,,,,2599.2179051999997,0.017192899999827205,[-0.049305555555555554],[-0.06597222222222222],[1],[0],[0],[1.721060099999704],2600.9628742,0.017662100000052305,[-0.049305555555555554],[-0.06597222222222222],[1],[0],[0],[1.6350814999996146],2602.6059511999997,0.012530900000456313,[-0.049305555555555554],[-0.06597222222222222],[1],[0],[0],[1.7212915999998586],2604.3315551,2607.3369104999997,2609.6577724000003,2609.6577724000003,2609.6577724000003,2609.6577724000003,1.8697916666666667,6.243679499999416,2615.8941502000002,2620.9118967,2620.9118967,2620.9118967,2620.9118967,2620.9118967,None,2620.9118967,2620.9118967,2620.9118967,2620.9118967,None,,,,2607.3369104999997,,,101,1,-1,2023-02-20_10h13.31.440,Moral_Emotion_Task,2022.2.4,None,
林蕾,林蕾把粉末放进朋友咖啡里。林蕾的朋友喝完咖啡后,林蕾把粉末放进朋友咖啡里这种行为：,1,goodPhappyE,materials/situations/1.PNG,materials/happyreason/1.PNG,materials/goodpropose/1.PNG,materials/happyending/1.PNG,0,94,94,94,,,,,,,,,,,,,2620.9118967,0.017205899999680696,[-0.04375],[-0.11388888888888889],[1],[0],[0],[2.649722400000428],2623.5742197000004,0.014111000000411877,[-0.04375],[-0.11388888888888889],[1],[0],[0],[1.571876699999848],2625.1669943,0.0195371999998315,[-0.04375],[-0.11388888888888889],[1],[0],[0],[1.9138440000006085],2627.0894376,2630.1008901,2632.4107449,2632.4107449,2632.4107449,2632.4107449,3.3072916666666665,2.3343189999995957,2634.7414562,2640.7699688999996,2640.7699688999996,2640.7699688999996,2640.7699688999996,2640.7699688999996,None,2640.7699688999996,2640.7699688999996,2640.7699688999996,2640.7699688999996,None,,,,2630.1008901,,,101,1,-1,2023-02-20_10h13.31.440,Moral_Emotion_Task,2022.2.4,None,
唐巧,唐巧让男孩走进冒烟的房子。男孩,唐巧让男孩走进冒烟房子这种行为是：,24,goodPhappyE,materials/situations/24.PNG,materials/happyreason/24.PNG,materials/goodpropose/24.PNG,materials/happyending/24.PNG,0,95,95,95,,,,,,,,,,,,,2640.7699688999996,0.020568099999763945,[-0.030555555555555555],[0.016666666666666666],[1],[0],[0],[2.313046499999473],2643.1001173,0.017682099999547063,[-0.030555555555555555],[0.016666666666666666],[1],[0],[0],[2.07154250000076],2645.1875317,0.015757600000142702,[-0.004166666666666667],[0.043055555555555555],[1],[0],[0],[2.0072340999995504],2647.2019825,2650.2156342000003,2652.5366852,2652.5366852,2652.5366852,2652.5366852,2.0,2.9091089000003194,2655.4386155999996,2659.4677014000004,2659.4677014000004,2659.4677014000004,2659.4677014000004,2659.4677014000004,None,2659.4677014000004,2659.4677014000004,2659.4677014000004,2659.4677014000004,None,,,,,,,101,1,-1,2023-02-20_10h13.31.440,Moral_Emotion_Task,2022.2.4,None,
刘芸,刘芸喂侄女米粉。小女孩吃下米粉后,刘芸喂侄女米粉这种行为：,36,badPsadE,materials/situations/36.PNG,materials/sadreason/36.PNG,materials/badpropose/36.PNG,materials/sadending/36.PNG,0,96,96,96,,,,,,,,,,,,,2659.4677014000004,0.0202302999996391,[0.07569444444444444],[-0.10416666666666667],[1],[0],[0],[1.62166839999918],2661.1095529,0.020307700000557816,[0.07569444444444444],[-0.10416666666666667],[1],[0],[0],[1.4820381999998062],2662.6053506000003,0.012830299999222916,[],[],[],[],[],[],2664.9037083999997,2667.9262470999997,2670.2216979,2670.2216979,2670.2216979,2670.2216979,1.7239583333333335,2.601580799999283,2672.8308248999997,2678.8417882,2678.8417882,2678.8417882,2678.8417882,2678.8417882,None,2678.8417882,2678.8417882,2678.8417882,2678.8417882,None,,,,,,,101,1,-1,2023-02-20_10h13.31.440,Moral_Emotion_Task,2022.2.4,None,
叶蓉,叶蓉把小狗卖给女顾客。小狗,叶蓉把小狗卖给女顾客这种行为：,39,badPhappyE,materials/situations/39.PNG,materials/happyreason/39.PNG,materials/badpropose/39.PNG,materials/happyending/39.PNG,0,97,97,97,,,,,,,,,,,,,2678.8417882,0.013394999999945867,[-0.05763888888888889],[-0.12152777777777778],[1],[0],[0],[2.564075100000082],2681.4174954000005,0.01188670000010461,[-0.049305555555555554],[-0.12152777777777778],[1],[0],[0],[1.4988042000004498],2682.9317625999997,0.012670399999478832,[],[],[],[],[],[],2685.2307285,2688.2416614,2690.5446827,2690.5446827,2690.5446827,2690.5446827,5.067708333333333,1.0052358000002641,2691.5605899999996,2694.5682985,2694.5682985,2694.5682985,2694.5682985,2694.5682985,None,2694.5682985,2694.5682985,2694.5682985,2694.5682985,None,,,,,,,101,1,-1,2023-02-20_10h13.31.440,Moral_Emotion_Task,2022.2.4,None,
严浩,严浩没有让乘客系好安全带。飞船开动后，这名乘客,严浩没有让乘客系好安全带这种行为：,45,goodPhappyE,materials/situations/45.PNG,materials/happyreason/45.PNG,materials/goodpropose/45.PNG,materials/happyending/45.PNG,0,98,98,98,,,,,,,,,,,,,2694.5682985,0.010395100000096136,[0.4125],[-0.09513888888888888],[1],[0],[0],[1.6496864999999161],2696.2376339999996,0.015503300000091258,[0.3472222222222222],[-0.06805555555555555],[1],[0],[0],[2.0652508000002854],2698.3145281,0.013139699999555887,[],[],[],[],[],[],2700.6173606999996,2703.6172013,2705.9302665,2705.9302665,2705.9302665,2705.9302665,2.973958333333333,3.2862771999998586,2709.2124147,2714.2239598,2714.2239598,2714.2239598,2714.2239598,2714.2239598,None,2714.2239598,2714.2239598,2714.2239598,2714.2239598,None,,,,,,,101,1,-1,2023-02-20_10h13.31.440,Moral_Emotion_Task,2022.2.4,None,
徐雷,徐雷让女朋友过桥。徐雷的女朋友,徐雷让女朋友过桥这种行为是：,4,badPhappyE,materials/situations/4.PNG,materials/happyreason/4.PNG,materials/badpropose/4.PNG,materials/happyending/4.PNG,0,99,99,99,,,,,,,,,,,,,2714.2239598,0.015454500000487315,[-0.06527777777777778],[-0.08055555555555556],[1],[0],[0],[1.2312369999999646],2715.4717582,0.015475600000172562,[-0.06527777777777778],[-0.08055555555555556],[1],[0],[0],[1.0038474999992104],2716.5003019,0.017460600000049453,[-0.06527777777777778],[-0.08055555555555556],[1],[0],[0],[1.028030200000103],2717.5319256,2720.5422901999996,2722.8558532,2722.8558532,2722.8558532,2722.8558532,2.2083333333333335,1.5217634999999063,2724.3711453,2728.3709229,2728.3709229,,2728.3709229,,space,2753.5358655000005,,2753.5358655000005,,s,,,,2720.5422901999996,3.1787178999998105,25.14666399999942,101,1,-1,2023-02-20_10h13.31.440,Moral_Emotion_Task,2022.2.4,None,
杨乐,"杨乐跳过这一段铁轨的工作。这段铁轨开始运营,",杨乐跳过这一段铁轨工作这种行为是：,17,goodPhappyE,materials/situations/17.PNG,materials/happyreason/17.PNG,materials/goodpropose/17.PNG,materials/happyending/17.PNG,0,100,100,100,,,,,,,,,,,,,2756.7536320000004,0.01516780000019935,[0.5152777777777777],[-0.125],[1],[0],[0],[2.6214138000004823],2759.3814771,0.014511299999867333,[0.5152777777777777],[-0.125],[1],[0],[0],[2.353016399999433],2761.7563262,0.018484299999727227,[0.5152777777777777],[-0.125],[1],[0],[0],[1.5477860999999393],2763.3092995,2766.3238735,2768.6470645000004,2768.6470645000004,2768.6470645000004,2768.6470645000004,3.046875,2.0847415999996883,2770.7336837999997,2773.7485963000004,2773.7485963000004,2773.7485963000004,2773.7485963000004,2773.7485963000004,None,2773.7485963000004,2773.7485963000004,2773.7485963000004,2773.7485963000004,None,,,,2766.3238735,,,101,1,-1,2023-02-20_10h13.31.440,Moral_Emotion_Task,2022.2.4,None,
程峰,程峰没有提醒客户。客户继续使用这台电脑,程峰没有提醒客户这种行为：,48,goodPsadE,materials/situations/48.PNG,materials/sadreason/48.PNG,materials/goodpropose/48.PNG,materials/sadending/48.PNG,0,101,101,101,,,,,,,,,,,,,2773.7485963000004,0.015284099999917089,[-0.11944444444444445],[-0.17847222222222223],[1],[0],[0],[1.8067541999998866],2775.5706777,0.015610899999956018,[-0.11944444444444445],[-0.17847222222222223],[1],[0],[0],[1.746453300000212],2777.3370579999996,0.019072800000685675,[-0.11944444444444445],[-0.17847222222222223],[1],[0],[0],[1.9944721000001664],2779.3484026,2782.3581821000002,2784.6551972,2784.6551972,2784.6551972,2784.6551972,1.6979166666666665,9.604650299999776,2794.2622527999997,2799.2842597000003,2799.2842597000003,2799.2842597000003,2799.2842597000003,2799.2842597000003,None,2799.2842597000003,2799.2842597000003,2799.2842597000003,2799.2842597000003,None,,,,,,,101,1,-1,2023-02-20_10h13.31.440,Moral_Emotion_Task,2022.2.4,None,
唐巧,唐巧让男孩走进冒烟的房子。男孩,唐巧让男孩走进冒烟房子这种行为是：,24,badPsadE,materials/situations/24.PNG,materials/sadreason/24.PNG,materials/badpropose/24.PNG,materials/sadending/24.PNG,0,102,102,102,,,,,,,,,,,,,2799.2842597000003,0.015178600000581355,[0.09791666666666667],[-0.2152777777777778],[1],[0],[0],[2.3534951000001456],2801.6467948000004,0.012756200000694662,[0.09791666666666667],[-0.2152777777777778],[1],[0],[0],[1.6853910999998334],2803.3406188000004,0.008555800000067393,[],[],[],[],[],[],2805.6378946,2808.6477837999996,2810.9544896,2810.9544896,2810.9544896,2810.9544896,1,1.6625619000005827,2812.6251467999996,2816.63787,2816.63787,2816.63787,2816.63787,2816.63787,None,2816.63787,2816.63787,2816.63787,2816.63787,None,,,,,,,101,1,-1,2023-02-20_10h13.31.440,Moral_Emotion_Task,2022.2.4,None,
何伟,何伟让客人进入实验室。客人,何伟让客人进入实验室这种行为：,2,goodPhappyE,materials/situations/2.PNG,materials/happyreason/2.PNG,materials/goodpropose/2.PNG,materials/happyending/2.PNG,0,103,103,103,,,,,,,,,,,,,2816.63787,0.017302700000072946,[-0.19444444444444445],[-0.1125],[1],[0],[0],[1.4137143999996624],2818.0689675999997,0.014548699999977543,[-0.19444444444444445],[-0.1125],[1],[0],[0],[1.4273908999994092],2819.5113966000004,0.015970000000379514,[-0.19444444444444445],[-0.1125],[1],[0],[0],[0.8714868999995815],2820.3965335,2823.4016644,2825.7060763000004,2825.7060763000004,2825.7060763000004,2825.7060763000004,4.765625,2.0672451999998884,2827.7865933999997,2830.8024372000004,2830.8024372000004,2830.8024372000004,2830.8024372000004,2830.8024372000004,None,2830.8024372000004,2830.8024372000004,2830.8024372000004,2830.8024372000004,None,,,,,,,101,1,-1,2023-02-20_10h13.31.440,Moral_Emotion_Task,2022.2.4,None,
何华,何华没有尝试叫醒朋友。他的朋友,何华没有尝试叫醒朋友这种行为：,40,badPhappyE,materials/situations/40.PNG,materials/happyreason/40.PNG,materials/badpropose/40.PNG,materials/happyending/40.PNG,0,104,104,104,,,,,,,,,,,,,2830.8024372000004,0.020872500000223226,[0.11041666666666666],[-0.2048611111111111],[1],[0],[0],[1.8115027000003465],2832.6251152,0.00937439999961498,[0.11041666666666666],[-0.2048611111111111],[1],[0],[0],[1.6631200000001627],2834.3047708999998,0.014071500000682136,[0.11041666666666666],[-0.2048611111111111],[1],[0],[0],[1.8493263999998817],2836.1591159000004,2839.1723349999997,2841.4805733999997,2841.4805733999997,2841.4805733999997,2841.4805733999997,5.197916666666667,3.4727859999993598,2844.9480024,2847.9653547000003,2847.9653547000003,2847.9653547000003,2847.9653547000003,2847.9653547000003,None,2847.9653547000003,2847.9653547000003,2847.9653547000003,2847.9653547000003,None,,,,2839.1723349999997,,,101,1,-1,2023-02-20_10h13.31.440,Moral_Emotion_Task,2022.2.4,None,
孙泽,孙泽买了一袋菠菜给奶奶。他奶奶在晚饭上吃下了这些菠菜后,孙泽买了一袋菠菜给奶奶这种行为：,27,badPhappyE,materials/situations/27.PNG,materials/happyreason/27.PNG,materials/badpropose/27.PNG,materials/happyending/27.PNG,0,105,105,105,,,,,,,,,,,,,2847.9653547000003,0.014409600000362843,[0.15833333333333333],[-0.21180555555555555],[1],[0],[0],[2.5163385999994716],2850.5019963,0.017683500000202912,[0.15833333333333333],[-0.21180555555555555],[1],[0],[0],[2.09059679999973],2852.6057712999996,0.01591740000003483,[0.15833333333333333],[-0.21180555555555555],[1],[0],[0],[1.7991494999996576],2854.4154298,2857.4166699,2859.7267325999997,2859.7267325999997,2859.7267325999997,2859.7267325999997,2.421875,1.2580357000006188,2860.9931428000004,2867.0174650000004,2867.0174650000004,2867.0174650000004,2867.0174650000004,2867.0174650000004,None,2867.0174650000004,2867.0174650000004,2867.0174650000004,2867.0174650000004,None,,,,2857.4166699,,,101,1,-1,2023-02-20_10h13.31.440,Moral_Emotion_Task,2022.2.4,None,
蒋文,蒋文没有管他妹妹。他的妹妹自己开车,蒋文没有管他妹妹这种行为：,32,goodPsadE,materials/situations/32.PNG,materials/sadreason/32.PNG,materials/goodpropose/32.PNG,materials/sadending/32.PNG,0,106,106,106,,,,,,,,,,,,,2867.0174650000004,0.016924800000197138,[-0.07222222222222222],[-0.10277777777777777],[1],[0],[0],[1.8966698999993241],2868.9185493,0.009801900000638852,[-0.07222222222222222],[-0.10277777777777777],[1],[0],[0],[1.9278801000000385],2870.8613773,0.012986699999601115,[-0.07222222222222222],[-0.10277777777777777],[1],[0],[0],[1.4132078000002366],2872.2882873000003,2875.2914932999997,2877.6026190999996,2877.6026190999996,2877.6026190999996,2877.6026190999996,1.838541666666667,1.6034219999992274,2879.2060798999996,2885.2195593,2885.2195593,2885.2195593,2885.2195593,2885.2195593,None,2885.2195593,2885.2195593,2885.2195593,2885.2195593,None,,,,,,,101,1,-1,2023-02-20_10h13.31.440,Moral_Emotion_Task,2022.2.4,None,
路明,路明让伙伴爬上树屋。他的朋友,路明让伙伴爬上树屋这种行为：,41,badPsadE,materials/situations/41.PNG,materials/sadreason/41.PNG,materials/badpropose/41.PNG,materials/sadending/41.PNG,0,107,107,107,,,,,,,,,,,,,2885.2195593,0.018089799999870593,[-0.2881944444444444],[-0.16944444444444445],[1],[0],[0],[1.4544174000002386],2886.6904446000003,0.014356399999996938,[-0.2881944444444444],[-0.16944444444444445],[1],[0],[0],[1.0081890999999814],2887.7172911000002,0.013426999999865075,[-0.12569444444444444],[-0.14166666666666666],[1],[0],[0],[2.0624453999998877],2889.7849729000004,2892.7980060000004,2895.1242424999996,2895.1242424999996,2895.1242424999996,2895.1242424999996,2.0885416666666665,1.5822015000003375,2896.6995793,2899.7200656,2899.7200656,2899.7200656,2899.7200656,2899.7200656,None,2899.7200656,2899.7200656,2899.7200656,2899.7200656,None,,,,,,,101,1,-1,2023-02-20_10h13.31.440,Moral_Emotion_Task,2022.2.4,None,
陈钢,陈钢同意飞机起飞。飞机,陈钢没有再要求清理跑道这种行为是：,16,badPsadE,materials/situations/16.PNG,materials/sadreason/16.PNG,materials/badpropose/16.PNG,materials/sadending/16.PNG,0,108,108,108,,,,,,,,,,,,,2899.7200656,0.017080499999792664,[-0.04791666666666667],[-0.09027777777777778],[1],[0],[0],[1.8631913999997778],2901.5920991,0.011246500000197557,[-0.05763888888888889],[-0.10694444444444444],[1],[0],[0],[0.8889815000002272],2902.4965119000003,0.01484699999946315,[-0.06666666666666667],[-0.11597222222222223],[1],[0],[0],[1.3141593000000285],2903.8199989,2906.8341557999997,2909.1394126,2909.1394126,2909.1394126,2909.1394126,1.0208333333333333,4.137650100000428,2913.2696948999996,2918.2797653000002,2918.2797653000002,2918.2797653000002,2918.2797653000002,2918.2797653000002,None,2918.2797653000002,2918.2797653000002,2918.2797653000002,2918.2797653000002,None,,,,,,,101,1,-1,2023-02-20_10h13.31.440,Moral_Emotion_Task,2022.2.4,None,
杨诺,杨诺把火腿加进了朋友的面里。她的朋友,杨诺把火腿加进朋友面里这种行为是：,20,badPhappyE,materials/situations/20.PNG,materials/happyreason/20.PNG,materials/badpropose/20.PNG,materials/happyending/20.PNG,0,109,109,109,,,,,,,,,,,,,2918.2797653000002,0.017591599999832397,[-0.2076388888888889],[-0.11180555555555556],[1],[0],[0],[1.7299249999996391],2920.0225784,0.01074499999958789,[-0.2076388888888889],[-0.11180555555555556],[1],[0],[0],[1.062229799999841],2921.1004189,0.011656200000288663,[-0.19930555555555557],[-0.11180555555555556],[1],[0],[0],[2.223565999999664],2923.3403838,2926.3506595000003,2928.6480069000004,2928.6480069000004,2928.6480069000004,2928.6480069000004,2.5625,1.7039282000005187,2930.3506533000004,2934.3679989999996,2934.3679989999996,2934.3679989999996,2934.3679989999996,2934.3679989999996,None,2934.3679989999996,2934.3679989999996,2934.3679989999996,2934.3679989999996,None,,,,,,,101,1,-1,2023-02-20_10h13.31.440,Moral_Emotion_Task,2022.2.4,None,
赵智,赵智默默离开。挥手那人,赵智默默离开这种行为是：,8,goodPhappyE,materials/situations/8.PNG,materials/happyreason/8.PNG,materials/goodpropose/8.PNG,materials/happyending/8.PNG,0,110,110,110,,,,,,,,,,,,,2934.3679989999996,0.01723720000063622,[-0.19166666666666668],[-0.16180555555555556],[1],[0],[0],[1.427628299999924],2935.8098636,0.01711909999994532,[-0.19166666666666668],[-0.16180555555555556],[1],[0],[0],[1.465029400000276],2937.2877781,0.010951000000204658,[],[],[],[],[],[],2939.5924296999997,2942.6045876000003,2944.9024354999997,2944.9024354999997,2944.9024354999997,2944.9024354999997,4.1875,3.002462600000399,2947.9082789999998,2952.9355551000003,2952.9355551000003,2952.9355551000003,2952.9355551000003,2952.9355551000003,None,2952.9355551000003,2952.9355551000003,2952.9355551000003,2952.9355551000003,None,,,,,,,101,1,-1,2023-02-20_10h13.31.440,Moral_Emotion_Task,2022.2.4,None,
