name,behave,evaluation,number,cond,situation,reason,propose,ending,trials.thisRepN,trials.thisTrialN,trials.thisN,trials.thisIndex,image.started,mouse_4.started,mouse_4.x,mouse_4.y,mouse_4.leftButton,mouse_4.midButton,mouse_4.rightButton,mouse_4.time,key_resp.started,image_2.started,key_resp.keys,key_resp.rt,back.started,mouse.started,mouse.x,mouse.y,mouse.leftButton,mouse.midButton,mouse.rightButton,mouse.time,predictp.started,mouse_2.started,mouse_2.x,mouse_2.y,mouse_2.leftButton,mouse_2.midButton,mouse_2.rightButton,mouse_2.time,predictp_2.started,mouse_3.started,mouse_3.x,mouse_3.y,mouse_3.leftButton,mouse_3.midButton,mouse_3.rightButton,mouse_3.time,text.started,predictp_3.started,slider.started,text_2.started,text_3.started,text_4.started,slider.response,slider.rt,text_6.started,text_6.stopped,text_5.started,text_5.stopped,key_resp_6.started,key_resp_6.stopped,key_resp_6.keys,key_resp_2.started,key_resp_2.stopped,image_3.started,image_3.stopped,key_resp_2.keys,predictp_2.stopped,mouse_3.stopped,text.stopped,back.stopped,mouse.stopped,predictp_3.stopped,key_resp_6.rt,key_resp_2.rt,participant,session,randomization,date,expName,psychopyVersion,frameRate,
,,,,,,,,,,,,,1241.5581551999985,2.519999907235615e-05,[-0.05416666666666667],[-0.3597222222222222],[1],[0],[0],[16.99767729999985],,,,,,,,,,,,,,,,,,,,,,,,,,,,,,,,,,,,,,,,,,,,,,,,,,,,,,,,,102,1,-1,2023-02-20_11h57.28.576,Moral_Emotion_Task,2022.2.4,None,
,,,,,,,,,,,,,,,,,,,,,1258.5278280999992,1258.5278280999992,s,24.28844830000162,,,,,,,,,,,,,,,,,,,,,,,,,,,,,,,,,,,,,,,,,,,,,,,,,,,,,102,1,-1,2023-02-20_11h57.28.576,Moral_Emotion_Task,2022.2.4,None,
路明,路明让伙伴爬上树屋。他的朋友,路明让伙伴爬上树屋这种行为：,41,goodPhappyE,materials/situations/41.PNG,materials/happyreason/41.PNG,materials/goodpropose/41.PNG,materials/happyending/41.PNG,0,0,0,0,,,,,,,,,,,,,1282.8779245999995,0.042571800000587245,[-0.1951388888888889],[0.015277777777777777],[1],[0],[0],[6.28757719999885],1289.1781287999984,0.014187099999617203,[-0.19722222222222222],[0.024305555555555556],[1],[0],[0],[4.070635000000038],1293.2660724999987,0.015343199998824275,[],[],[],[],[],[],1295.5726763999992,1298.5638187999994,1300.8845936999987,1300.8845936999987,1300.8845936999987,1300.8845936999987,3.8229166666666665,16.891156199999386,1317.7580037999996,1322.7603661999983,1322.7603661999983,1322.7603661999983,1322.7603661999983,1322.7603661999983,None,1322.7603661999983,1322.7603661999983,1322.7603661999983,1322.7603661999983,None,,,,,,,,,102,1,-1,2023-02-20_11h57.28.576,Moral_Emotion_Task,2022.2.4,None,
郑宇,郑宇没有阻止朋友开枪。子弹射中了,郑宇没有阻止朋友开枪这种行为：,26,goodPsadE,materials/situations/26.PNG,materials/sadreason/26.PNG,materials/goodpropose/26.PNG,materials/sadending/26.PNG,0,1,1,1,,,,,,,,,,,,,1322.7603661999983,0.009473300000536256,[0.07152777777777777],[-0.20208333333333334],[1],[0],[0],[6.181732400000328],1328.9537848,0.014451000000917702,[0.04583333333333333],[-0.22708333333333333],[1],[0],[0],[8.320800800000143],1337.2898916999984,0.014142600000923267,[],[],[],[],[],[],1339.587041499999,1342.5941086999992,1344.8911814999992,1344.8911814999992,1344.8911814999992,1344.8911814999992,2.291666666666667,0.40483660000063537,1345.301964799999,1349.315784299999,1349.315784299999,1349.315784299999,1349.315784299999,1349.315784299999,None,1349.315784299999,1349.315784299999,1349.315784299999,1349.315784299999,None,,,,,,,,,102,1,-1,2023-02-20_11h57.28.576,Moral_Emotion_Task,2022.2.4,None,
叶蓉,叶蓉把小狗卖给女顾客。小狗,叶蓉把小狗卖给女顾客这种行为：,39,goodPsadE,materials/situations/39.PNG,materials/sadreason/39.PNG,materials/goodpropose/39.PNG,materials/sadending/39.PNG,0,2,2,2,,,,,,,,,,,,,1349.315784299999,0.013234899999588379,[-0.08402777777777778],[-0.29930555555555555],[1],[0],[0],[3.32136569999966],1352.6488513999993,0.012859100001151091,[-0.11944444444444445],[-0.3423611111111111],[1],[0],[0],[2.183278900000005],1354.8412626999998,0.008234599999923375,[],[],[],[],[],[],1357.1440656999985,1360.148983699999,1362.4563162999984,1362.4563162999984,1362.4563162999984,1362.4563162999984,1,4.2278030999987095,1366.6795437,1370.6813499,1370.6813499,1370.6813499,1370.6813499,1370.6813499,None,1370.6813499,1370.6813499,1370.6813499,1370.6813499,None,,,,,,,,,102,1,-1,2023-02-20_11h57.28.576,Moral_Emotion_Task,2022.2.4,None,
孙泽,孙泽买了一袋菠菜给奶奶。他奶奶在晚饭上吃下了这些菠菜后,孙泽买了一袋菠菜给奶奶这种行为：,27,badPsadE,materials/situations/27.PNG,materials/sadreason/27.PNG,materials/badpropose/27.PNG,materials/sadending/27.PNG,0,3,3,3,,,,,,,,,,,,,1370.6813499,0.008997099999760394,[-0.034722222222222224],[-0.26805555555555555],[1],[0],[0],[4.35597400000006],1375.0486881999987,0.013577099998656195,[-0.025],[-0.29375],[1],[0],[0],[3.2058517999994365],1378.2626384999985,0.0076212000003579305,[],[],[],[],[],[],1380.5692025999997,1383.5717144999999,1385.8736836999997,1385.8736836999997,1385.8736836999997,1385.8736836999997,1.140625,5.384343600000648,1391.2535157999991,1397.2521687999997,1397.2521687999997,1397.2521687999997,1397.2521687999997,1397.2521687999997,None,1397.2521687999997,1397.2521687999997,1397.2521687999997,1397.2521687999997,None,,,,,,,,,102,1,-1,2023-02-20_11h57.28.576,Moral_Emotion_Task,2022.2.4,None,
李浩,李浩不理会侄子胃疼。他的侄子很快就,李浩不理会侄子胃疼这种行为：,31,badPhappyE,materials/situations/31.PNG,materials/happyreason/31.PNG,materials/badpropose/31.PNG,materials/happyending/31.PNG,0,4,4,4,,,,,,,,,,,,,1397.2521687999997,0.00871729999926174,[-0.10902777777777778],[-0.2847222222222222],[1],[0],[0],[7.749251299999742],1405.0125369999987,0.009111400000620051,[],[],[],[],[],[],1415.016965499999,0.014742700001079356,[-0.12708333333333333],[-0.3013888888888889],[1],[0],[0],[0.048042200000054436],1415.0749030999996,1418.0804675,1420.3791035999984,1420.3791035999984,1420.3791035999984,1420.3791035999984,3.0989583333333335,4.1506774999998015,1424.5294225999987,1429.5347702999989,1429.5347702999989,1429.5347702999989,1429.5347702999989,1429.5347702999989,None,1429.5347702999989,1429.5347702999989,1429.5347702999989,1429.5347702999989,None,,,,,,,,,102,1,-1,2023-02-20_11h57.28.576,Moral_Emotion_Task,2022.2.4,None,
王丽,王丽戴橡胶手套检查病人。病人,王丽戴橡胶手套检查病人这种行为是：,7,goodPsadE,materials/situations/7.PNG,materials/sadreason/7.PNG,materials/goodpropose/7.PNG,materials/sadending/7.PNG,0,5,5,5,,,,,,,,,,,,,1429.5347702999989,0.01304100000015751,[-0.08611111111111111],[-0.20625],[1],[0],[0],[2.6769373000006453],1432.2276833999986,0.012764200000674464,[-0.08611111111111111],[-0.19722222222222222],[1],[0],[0],[6.421243700000559],1438.6538912999986,0.007415199999741162,[],[],[],[],[],[],1440.9554231999991,1443.9593664999993,1446.2644065999993,1446.2644065999993,1446.2644065999993,1446.2644065999993,1.1354166666666665,6.870843000000605,1453.1331561999996,1459.1460756999986,1459.1460756999986,1459.1460756999986,1459.1460756999986,1459.1460756999986,None,1459.1460756999986,1459.1460756999986,1459.1460756999986,1459.1460756999986,None,1440.9554231999991,2.299644000000626,1443.9593664999993,,,,,,102,1,-1,2023-02-20_11h57.28.576,Moral_Emotion_Task,2022.2.4,None,
陈杰,陈杰离开家去见朋友。警报一直在响，房屋,陈杰离开家去见朋友这种行为：,29,badPhappyE,materials/situations/29.PNG,materials/happyreason/29.PNG,materials/badpropose/29.PNG,materials/happyending/29.PNG,0,6,6,6,,,,,,,,,,,,,1459.1460756999986,0.008065799998803413,[-0.23680555555555555],[-0.2861111111111111],[1],[0],[0],[6.493118500000492],1465.6447660999984,0.006779100000130711,[-0.2263888888888889],[-0.22569444444444445],[1],[0],[0],[9.11002069999995],1474.7630257,0.006711499998345971,[],[],[],[],[],[],1477.0689592999988,1480.0689933999984,1482.3654749999987,1482.3654749999987,1482.3654749999987,1482.3654749999987,3.890625,0.14241069999843603,1482.5068972999998,1485.5184654999994,1485.5184654999994,1485.5184654999994,1485.5184654999994,1485.5184654999994,None,1485.5184654999994,1485.5184654999994,1485.5184654999994,1485.5184654999994,None,,,,,,,,,102,1,-1,2023-02-20_11h57.28.576,Moral_Emotion_Task,2022.2.4,None,
乔南,乔南点燃熏香。毒气充斥着整座房屋，把害虫都杀光了。邻居的妈妈,乔南点燃熏香这种行为：,35,goodPsadE,materials/situations/35.PNG,materials/sadreason/35.PNG,materials/goodpropose/35.PNG,materials/sadending/35.PNG,0,7,7,7,,,,,,,,,,,,,1485.5184654999994,0.013049099999989267,[0.1451388888888889],[-0.22777777777777777],[1],[0],[0],[5.468738999999914],1490.9985579999993,0.013188200000513461,[0.10416666666666667],[-0.23541666666666666],[1],[0],[0],[6.3725642999997945],1497.3825419999994,0.013797000001432025,[],[],[],[],[],[],1499.6987415999993,1502.6976858999988,1504.9823588999989,1504.9823588999989,1504.9823588999989,1504.9823588999989,2.1197916666666665,5.96191220000037,1510.9467292999998,1514.9519850999986,1514.9519850999986,1514.9519850999986,1514.9519850999986,1514.9519850999986,None,1514.9519850999986,1514.9519850999986,1514.9519850999986,1514.9519850999986,None,,,,,,,,,102,1,-1,2023-02-20_11h57.28.576,Moral_Emotion_Task,2022.2.4,None,
周燕,周燕没有提醒这些青年。青年们滑下坡，,周燕没有提醒这些青年这种行为：,47,goodPhappyE,materials/situations/47.PNG,materials/happyreason/47.PNG,materials/goodpropose/47.PNG,materials/happyending/47.PNG,0,8,8,8,,,,,,,,,,,,,1514.9519850999986,0.013258299999506562,[-0.14305555555555555],[-0.24166666666666667],[1],[0],[0],[5.163666500000545],1520.1273618999985,0.013082400000712369,[-0.19652777777777777],[-0.30416666666666664],[1],[0],[0],[3.487368100000822],1523.6286732999997,0.01324910000039381,[],[],[],[],[],[],1525.9439829999992,1528.9326228999998,1531.2291851999998,1531.2291851999998,1531.2291851999998,1531.2291851999998,1.838541666666667,13.767638199999055,1544.9987379999984,1551.000367499999,1551.000367499999,1551.000367499999,1551.000367499999,1551.000367499999,None,1551.000367499999,1551.000367499999,1551.000367499999,1551.000367499999,None,,,,,,,,,102,1,-1,2023-02-20_11h57.28.576,Moral_Emotion_Task,2022.2.4,None,
徐娜,徐娜叫她的朋友到冰屋里玩。她的朋友,徐娜叫朋友到冰屋里玩这种行为是：,19,badPsadE,materials/situations/19.PNG,materials/sadreason/19.PNG,materials/badpropose/19.PNG,materials/sadending/19.PNG,0,9,9,9,,,,,,,,,,,,,1551.000367499999,0.007732299998679082,[-0.2881944444444444],[-0.21180555555555555],[1],[0],[0],[4.510972300000503],1555.5255867999986,0.013488100001268322,[-0.17291666666666666],[-0.2673611111111111],[1],[0],[0],[6.121011200000794],1561.6591984999995,0.014693999999508378,[],[],[],[],[],[],1563.9643457999991,1566.9676310999985,1569.2634724,1569.2634724,1569.2634724,1569.2634724,1,5.080200799999147,1574.3451990999984,1580.342278799999,1580.342278799999,1580.342278799999,1580.342278799999,1580.342278799999,None,1580.342278799999,1580.342278799999,1580.342278799999,1580.342278799999,None,,,,,,,,,102,1,-1,2023-02-20_11h57.28.576,Moral_Emotion_Task,2022.2.4,None,
方远,方远只顾自己继续吃饭。那名顾客,方远只顾自己继续吃饭这种行为：,43,badPsadE,materials/situations/43.PNG,materials/sadreason/43.PNG,materials/badpropose/43.PNG,materials/sadending/43.PNG,0,10,10,10,,,,,,,,,,,,,1580.342278799999,0.008255900000222027,[-0.2534722222222222],[-0.27569444444444446],[1],[0],[0],[4.5404815999991115],1584.8893850999993,0.006265699999858043,[-0.22777777777777777],[-0.12430555555555556],[1],[0],[0],[6.591344899999967],1591.4935037999985,0.00642859999970824,[],[],[],[],[],[],1593.7991116999983,1596.7987075,1599.0984063999986,1599.0984063999986,1599.0984063999986,1599.0984063999986,1,10.22614799999974,1609.3302721,1613.3274229999988,1613.3274229999988,1613.3274229999988,1613.3274229999988,1613.3274229999988,None,1613.3274229999988,1613.3274229999988,1613.3274229999988,1613.3274229999988,None,,,,,,,,,102,1,-1,2023-02-20_11h57.28.576,Moral_Emotion_Task,2022.2.4,None,
张克,张克邀请朋友吃饼干。他的朋友,张克邀请他的朋友吃饼干这种行为是：,22,badPsadE,materials/situations/22.PNG,materials/sadreason/22.PNG,materials/badpropose/22.PNG,materials/sadending/22.PNG,0,11,11,11,,,,,,,,,,,,,1613.3274229999988,0.008163599999534199,[-0.14722222222222223],[-0.2902777777777778],[1],[0],[0],[6.166107199998805],1619.5020570999986,0.008164099999703467,[-0.14722222222222223],[-0.2902777777777778],[1],[0],[0],[6.4831030999994255],1626.0004888999993,0.014709700000821613,[],[],[],[],[],[],1628.2973616,1631.3042523999993,1633.6015191999995,1633.6015191999995,1633.6015191999995,1633.6015191999995,1,2.8751360999995086,1636.473704,1640.4727709,1640.4727709,1640.4727709,1640.4727709,1640.4727709,None,1640.4727709,1640.4727709,1640.4727709,1640.4727709,None,,,,,,,,,102,1,-1,2023-02-20_11h57.28.576,Moral_Emotion_Task,2022.2.4,None,
孙泽,孙泽买了一袋菠菜给奶奶。他奶奶在晚饭上吃下了这些菠菜后,孙泽买了一袋菠菜给奶奶这种行为：,27,goodPhappyE,materials/situations/27.PNG,materials/happyreason/27.PNG,materials/goodpropose/27.PNG,materials/happyending/27.PNG,0,12,12,12,,,,,,,,,,,,,1640.4727709,0.006570599998667603,[-0.4444444444444444],[-0.3284722222222222],[1],[0],[0],[3.6824756000005436],1644.1581128999987,0.007605299999340787,[-0.3527777777777778],[-0.20416666666666666],[1],[0],[0],[4.647808499999883],1648.8185675999994,0.007581500000014785,[],[],[],[],[],[],1651.1128721999994,1654.1204693,1656.4319828999996,1656.4319828999996,1656.4319828999996,1656.4319828999996,6.859375,2.6654410999999527,1659.1015513999992,1662.0981858999985,1662.0981858999985,1662.0981858999985,1662.0981858999985,1662.0981858999985,None,1662.0981858999985,1662.0981858999985,1662.0981858999985,1662.0981858999985,None,,,1654.1204693,,,,,,102,1,-1,2023-02-20_11h57.28.576,Moral_Emotion_Task,2022.2.4,None,
林蕾,林蕾把粉末放进朋友咖啡里。林蕾的朋友喝完咖啡后,林蕾把粉末放进朋友咖啡里这种行为：,1,badPsadE,materials/situations/1.PNG,materials/sadreason/1.PNG,materials/badpropose/1.PNG,materials/sadending/1.PNG,0,13,13,13,,,,,,,,,,,,,1662.0981858999985,0.007622199998877477,[],[],[],[],[],[],1672.0990523,0.008818000000246684,[0.11527777777777778],[-0.2569444444444444],[1],[0],[0],[4.290120900001057],1676.4040117999994,0.013752800001384458,[],[],[],[],[],[],1678.720772999999,1681.7165570999987,1684.0074964999985,1684.0074964999985,1684.0074964999985,1684.0074964999985,1.0364583333333335,2.5815140000013344,1686.5830022999999,1689.5988932,1689.5988932,1689.5988932,1689.5988932,1689.5988932,None,1689.5988932,1689.5988932,1689.5988932,1689.5988932,None,,,,1672.0990523,9.998871399999189,,,,102,1,-1,2023-02-20_11h57.28.576,Moral_Emotion_Task,2022.2.4,None,
左兰,左兰告诉助理不用佩戴防护装置。她的助理在小岛,左兰告诉助理不用戴防护装置这种行为：,34,goodPsadE,materials/situations/34.PNG,materials/sadreason/34.PNG,materials/goodpropose/34.PNG,materials/sadending/34.PNG,0,14,14,14,,,,,,,,,,,,,1689.5988932,0.012304399999266025,[-0.03611111111111111],[-0.23958333333333334],[1],[0],[0],[5.241975200000525],1694.8513663999984,0.012525100000857492,[0.04861111111111111],[-0.41944444444444445],[1],[0],[0],[2.542243400001098],1697.4003670999991,0.007655900000827387,[],[],[],[],[],[],1699.7081954999994,1702.7169408999998,1705.0163833999995,1705.0163833999995,1705.0163833999995,1705.0163833999995,1.0885416666666665,2.521654000000126,1707.5331444999993,1711.5439492999994,1711.5439492999994,1711.5439492999994,1711.5439492999994,1711.5439492999994,None,1711.5439492999994,1711.5439492999994,1711.5439492999994,1711.5439492999994,None,,,,,,,,,102,1,-1,2023-02-20_11h57.28.576,Moral_Emotion_Task,2022.2.4,None,
许乐,许乐让男朋友去碎浪那边游泳。她的男朋友,许乐让男朋友去碎浪那边游泳这种行为：,42,goodPhappyE,materials/situations/42.PNG,materials/happyreason/42.PNG,materials/goodpropose/42.PNG,materials/happyending/42.PNG,0,15,15,15,,,,,,,,,,,,,1711.5439492999994,0.008788199998889468,[0.058333333333333334],[-0.2375],[1],[0],[0],[4.213840300000811],1715.7655532999997,0.0068578999998862855,[0.058333333333333334],[-0.2375],[1],[0],[0],[6.160788999999568],1721.9373833999998,0.012057600000844104,[],[],[],[],[],[],1724.2448864999988,1727.2351786,1729.5498660999983,1729.5498660999983,1729.5498660999983,1729.5498660999983,7,2.4252465999998094,1731.9741184999984,1737.9770811999988,1737.9770811999988,1737.9770811999988,1737.9770811999988,1737.9770811999988,None,1737.9770811999988,1737.9770811999988,1737.9770811999988,1737.9770811999988,None,,,,,,,,,102,1,-1,2023-02-20_11h57.28.576,Moral_Emotion_Task,2022.2.4,None,
苏珍,苏珍把学生分到非过敏体质班。这个学生,苏珍把学生分到非过敏体质班这种行为：,28,goodPhappyE,materials/situations/28.PNG,materials/happyreason/28.PNG,materials/goodpropose/28.PNG,materials/happyending/28.PNG,0,16,16,16,,,,,,,,,,,,,1737.9770811999988,0.009027400001286878,[0.052083333333333336],[-0.12708333333333333],[1],[0],[0],[5.144865900001605],1743.1327646999998,0.013738399999056128,[0.052083333333333336],[-0.12708333333333333],[1],[0],[0],[7.677215599998817],1750.818749099999,0.008126599999741302,[],[],[],[],[],[],1753.1295355999991,1756.136631899999,1758.4349269999984,1758.4349269999984,1758.4349269999984,1758.4349269999984,6.796875,4.337272799999482,1762.7650485999984,1766.7791465999999,1766.7791465999999,1766.7791465999999,1766.7791465999999,1766.7791465999999,None,1766.7791465999999,1766.7791465999999,1766.7791465999999,1766.7791465999999,None,,,,,,,,,102,1,-1,2023-02-20_11h57.28.576,Moral_Emotion_Task,2022.2.4,None,
何伟,何伟让客人进入实验室。客人,何伟让客人进入实验室这种行为：,2,goodPsadE,materials/situations/2.PNG,materials/sadreason/2.PNG,materials/goodpropose/2.PNG,materials/sadending/2.PNG,0,17,17,17,,,,,,,,,,,,,1766.7791465999999,0.0130871000001207,[0.049305555555555554],[-0.26875],[1],[0],[0],[5.077880599999844],1771.865926299999,0.006932099999175989,[0.049305555555555554],[-0.26875],[1],[0],[0],[2.8866969000009703],1774.759591099999,0.006288999999014777,[],[],[],[],[],[],1777.0642888999992,1780.0583183999988,1782.3610616999995,1782.3610616999995,1782.3610616999995,1782.3610616999995,1,3.5038975999996183,1785.8595269999987,1789.8688591999999,1789.8688591999999,1789.8688591999999,1789.8688591999999,1789.8688591999999,None,1789.8688591999999,1789.8688591999999,1789.8688591999999,1789.8688591999999,None,1777.0642888999992,2.2990757999996276,,,,1782.3610616999995,,,102,1,-1,2023-02-20_11h57.28.576,Moral_Emotion_Task,2022.2.4,None,
赵晨,赵晨鼓励朋友下去游泳。赵晨的朋友在池塘,赵晨鼓励朋友下去游泳这种行为：,25,badPhappyE,materials/situations/25.PNG,materials/happyreason/25.PNG,materials/badpropose/25.PNG,materials/happyending/25.PNG,0,18,18,18,,,,,,,,,,,,,1789.8688591999999,0.01318610000089393,[-0.10972222222222222],[-0.24375],[1],[0],[0],[2.5187664999994013],1792.398999699999,0.013177700000596815,[-0.10972222222222222],[-0.24375],[1],[0],[0],[4.648832400000174],1797.0612115999993,0.012869999998656567,[],[],[],[],[],[],1799.3781862999986,1802.3693781999991,1804.6651531999996,1804.6651531999996,1804.6651531999996,1804.6651531999996,2.9583333333333335,4.319383699999889,1808.9869480999987,1814.9996424,1814.9996424,1814.9996424,1814.9996424,1814.9996424,None,1814.9996424,1814.9996424,1814.9996424,1814.9996424,None,,,,,,,,,102,1,-1,2023-02-20_11h57.28.576,Moral_Emotion_Task,2022.2.4,None,
马慧,马慧没有阻止堂兄走进厨房。她的堂兄,马慧没有阻止堂兄进厨房这种行为是：,21,badPhappyE,materials/situations/21.PNG,materials/happyreason/21.PNG,materials/badpropose/21.PNG,materials/happyending/21.PNG,0,19,19,19,,,,,,,,,,,,,1814.9996424,0.01334339999993972,[0.14097222222222222],[-0.18819444444444444],[1],[0],[0],[6.119950999998764],1821.1344155999996,0.014447200001086458,[0.14097222222222222],[-0.18819444444444444],[1],[0],[0],[3.9191455000000133],1825.0662188999995,0.013202899999669171,[],[],[],[],[],[],1827.3614097999998,1830.3704894999992,1832.6798223999995,1832.6798223999995,1832.6798223999995,1832.6798223999995,4.947916666666667,7.214314900000318,1839.8900533999986,1845.894247799999,1845.894247799999,1845.894247799999,1845.894247799999,1845.894247799999,None,1845.894247799999,1845.894247799999,1845.894247799999,1845.894247799999,None,,,,,,,,,102,1,-1,2023-02-20_11h57.28.576,Moral_Emotion_Task,2022.2.4,None,
蒋文,蒋文没有管他妹妹。他的妹妹自己开车,蒋文没有管他妹妹这种行为：,32,goodPhappyE,materials/situations/32.PNG,materials/happyreason/32.PNG,materials/goodpropose/32.PNG,materials/happyending/32.PNG,0,20,20,20,,,,,,,,,,,,,1845.894247799999,0.009057499999471474,[0.06944444444444445],[-0.275],[1],[0],[0],[3.821218000000954],1849.7241132,0.00823090000085358,[-0.020833333333333332],[-0.18055555555555555],[1],[0],[0],[4.71796059999906],1854.4511526999995,0.0071238000000448665,[-0.020833333333333332],[-0.18055555555555555],[1],[0],[0],[1.8280340999990585],1856.2869310999995,1859.3005979999998,1861.596377599999,1861.596377599999,1861.596377599999,1861.596377599999,6.0625,2.417908699999316,1864.0176410999993,1870.0218612999997,1870.0218612999997,1870.0218612999997,1870.0218612999997,1870.0218612999997,None,1870.0218612999997,1870.0218612999997,1870.0218612999997,1870.0218612999997,None,,,,,,,,,102,1,-1,2023-02-20_11h57.28.576,Moral_Emotion_Task,2022.2.4,None,
罗兰,罗兰把蘑菇给朋友吃。罗兰的朋友,罗兰把蘑菇送给朋友吃这种行为是：,6,goodPsadE,materials/situations/6.PNG,materials/sadreason/6.PNG,materials/goodpropose/6.PNG,materials/sadending/6.PNG,0,21,21,21,,,,,,,,,,,,,1870.0218612999997,0.014096299999437178,[-0.009722222222222222],[-0.2590277777777778],[1],[0],[0],[3.805972300000576],1873.8341584999998,0.00788500000089698,[0.02361111111111111],[-0.3159722222222222],[1],[0],[0],[1.6879215000008116],1875.5377176999991,0.012776999999914551,[],[],[],[],[],[],1877.839890199999,1880.8494612999984,1883.1446177999987,1883.1446177999987,1883.1446177999987,1883.1446177999987,1,4.328030700000454,1887.4738859999998,1890.4860122999999,1890.4860122999999,1890.4860122999999,1890.4860122999999,1890.4860122999999,None,1890.4860122999999,1890.4860122999999,1890.4860122999999,1890.4860122999999,None,,,,,,,,,102,1,-1,2023-02-20_11h57.28.576,Moral_Emotion_Task,2022.2.4,None,
杨乐,"杨乐跳过这一段铁轨的工作。这段铁轨开始运营,",杨乐跳过这一段铁轨工作这种行为是：,17,badPsadE,materials/situations/17.PNG,materials/sadreason/17.PNG,materials/badpropose/17.PNG,materials/sadending/17.PNG,0,22,22,22,,,,,,,,,,,,,1890.4860122999999,0.013557300000684336,[0.16875],[-0.24166666666666667],[1],[0],[0],[5.693966499999078],1896.1862211999996,0.00817789999928209,[0.15902777777777777],[-0.23680555555555555],[1],[0],[0],[3.237212500000169],1899.4393744999998,0.014792199999646982,[],[],[],[],[],[],1901.7451121999984,1904.7478471999984,1907.052431099999,1907.052431099999,1907.052431099999,1907.052431099999,1,2.305605399998967,1909.3564984999994,1913.358386599999,1913.358386599999,1913.358386599999,1913.358386599999,1913.358386599999,None,1913.358386599999,1913.358386599999,1913.358386599999,1913.358386599999,None,,,,,,,,,102,1,-1,2023-02-20_11h57.28.576,Moral_Emotion_Task,2022.2.4,None,
王齐,王齐向同事推荐金枪鱼。他的一个同事吃了这道菜后，,王齐向同事推荐金枪鱼这种行为：,33,badPhappyE,materials/situations/33.PNG,materials/happyreason/33.PNG,materials/badpropose/33.PNG,materials/happyending/33.PNG,0,23,23,23,,,,,,,,,,,,,1913.358386599999,0.011608200000409852,[-0.03263888888888889],[-0.11319444444444444],[1],[0],[0],[4.4806250000001455],1917.8500093999992,0.008963300000687013,[-0.049305555555555554],[-0.10416666666666667],[1],[0],[0],[2.6925492999998824],1920.5510682999993,0.012275099999897066,[],[],[],[],[],[],1922.8764627,1925.8698384,1928.1512017999994,1928.1512017999994,1928.1512017999994,1928.1512017999994,6.552083333333333,3.513591400000223,1931.6824929999984,1934.683189199999,1934.683189199999,1934.683189199999,1934.683189199999,1934.683189199999,None,1934.683189199999,1934.683189199999,1934.683189199999,1934.683189199999,None,,,,,,,,,102,1,-1,2023-02-20_11h57.28.576,Moral_Emotion_Task,2022.2.4,None,
杨诺,杨诺把火腿加进了朋友的面里。她的朋友,杨诺把火腿加进朋友面里这种行为是：,20,badPhappyE,materials/situations/20.PNG,materials/happyreason/20.PNG,materials/badpropose/20.PNG,materials/happyending/20.PNG,0,24,24,24,,,,,,,,,,,,,1934.683189199999,0.006734200000209967,[0.20416666666666666],[-0.12152777777777778],[1],[0],[0],[3.117713100000401],1937.804301799999,0.007594000000608503,[0.20416666666666666],[-0.12152777777777778],[1],[0],[0],[1.3848746000003302],1939.1995813999984,0.007072300000800169,[],[],[],[],[],[],1941.4988084999986,1944.5012382999994,1946.8022494999987,1946.8022494999987,1946.8022494999987,1946.8022494999987,6.96875,8.677141500000289,1955.4774466999988,1960.4741785999995,1960.4741785999995,,1960.4741785999995,,space,1984.2259606999996,,1984.2259606999996,,s,,,,,,1946.8022494999987,23.738157100000535,19.846909000001688,102,1,-1,2023-02-20_11h57.28.576,Moral_Emotion_Task,2022.2.4,None,
赵智,赵智默默离开。挥手那人,赵智默默离开这种行为是：,8,badPsadE,materials/situations/8.PNG,materials/sadreason/8.PNG,materials/badpropose/8.PNG,materials/sadending/8.PNG,0,25,25,25,,,,,,,,,,,,,2004.0969768999985,0.013755400001173257,[0.08958333333333333],[0.08472222222222223],[1],[0],[0],[4.687216000000262],2008.7912163,0.008423500001299544,[0.08958333333333333],[0.08472222222222223],[1],[0],[0],[1.9129468000010093],2010.7217821999984,0.012410400000590016,[],[],[],[],[],[],2013.012904199999,2016.0211848,2018.3300647999986,2018.3300647999986,2018.3300647999986,2018.3300647999986,1.890625,0.346913700001096,2018.6799513999995,2024.6823197999984,2024.6823197999984,2024.6823197999984,2024.6823197999984,2024.6823197999984,None,2024.6823197999984,2024.6823197999984,2024.6823197999984,2024.6823197999984,None,,,,,,,,,102,1,-1,2023-02-20_11h57.28.576,Moral_Emotion_Task,2022.2.4,None,
乔南,乔南点燃熏香。毒气充斥着整座房屋，把害虫都杀光了。邻居的妈妈,乔南点燃熏香这种行为：,35,badPsadE,materials/situations/35.PNG,materials/sadreason/35.PNG,materials/badpropose/35.PNG,materials/sadending/35.PNG,0,26,26,26,,,,,,,,,,,,,2024.6823197999984,0.007836099999622093,[0.07777777777777778],[-0.27361111111111114],[1],[0],[0],[4.577498200000264],2029.2639552,0.00719300000127987,[0.07847222222222222],[-0.24861111111111112],[1],[0],[0],[2.979879799999253],2032.2562763999995,0.013693700000658282,[],[],[],[],[],[],2034.5574029,2037.5599958999992,2039.8608773999986,2039.8608773999986,2039.8608773999986,2039.8608773999986,1.15625,2.0335551999996824,2041.9013834999987,2045.9053547999993,2045.9053547999993,2045.9053547999993,2045.9053547999993,2045.9053547999993,None,2045.9053547999993,2045.9053547999993,2045.9053547999993,2045.9053547999993,None,,,,,,,,,102,1,-1,2023-02-20_11h57.28.576,Moral_Emotion_Task,2022.2.4,None,
韩珍,韩珍悄悄走开。小孩,韩珍悄悄走开这种行为是：,5,badPsadE,materials/situations/5.PNG,materials/sadreason/5.PNG,materials/badpropose/5.PNG,materials/sadending/5.PNG,0,27,27,27,,,,,,,,,,,,,2045.9053547999993,0.01274119999834511,[-0.14097222222222222],[-0.16944444444444445],[1],[0],[0],[2.762525699999969],2048.6751440999997,0.00772559999859368,[-0.14097222222222222],[-0.16944444444444445],[1],[0],[0],[2.6901545000000624],2051.3796267999987,0.012614799999937532,[],[],[],[],[],[],2053.6738104999986,2056.673305999999,2058.9762873,2058.9762873,2058.9762873,2058.9762873,1.1614583333333333,2.2106996000002255,2061.1947215,2067.196042899999,2067.196042899999,2067.196042899999,2067.196042899999,2067.196042899999,None,2067.196042899999,2067.196042899999,2067.196042899999,2067.196042899999,None,,,2056.673305999999,,,2058.9762873,,,102,1,-1,2023-02-20_11h57.28.576,Moral_Emotion_Task,2022.2.4,None,
史琴,史琴给朋友系上安全带。她的朋友,史琴给朋友系上安全带这种行为是：,18,goodPhappyE,materials/situations/18.PNG,materials/happyreason/18.PNG,materials/goodpropose/18.PNG,materials/happyending/18.PNG,0,28,28,28,,,,,,,,,,,,,2067.196042899999,0.00676240000029793,[0.12083333333333333],[-0.10138888888888889],[1],[0],[0],[5.206215399999564],2072.414105599999,0.01247229999898991,[-0.06041666666666667],[-0.16875],[1],[0],[0],[2.125638900000922],2074.556100399999,0.011988100000962731,[],[],[],[],[],[],2076.8577146999996,2079.859172799999,2082.166981299999,2082.166981299999,2082.166981299999,2082.166981299999,6.911458333333334,2.371748400000797,2084.5275010999994,2090.5265667999993,2090.5265667999993,2090.5265667999993,2090.5265667999993,2090.5265667999993,None,2090.5265667999993,2090.5265667999993,2090.5265667999993,2090.5265667999993,None,,,,,,,,,102,1,-1,2023-02-20_11h57.28.576,Moral_Emotion_Task,2022.2.4,None,
李浩,李浩不理会侄子胃疼。他的侄子很快就,李浩不理会侄子胃疼这种行为：,31,goodPsadE,materials/situations/31.PNG,materials/sadreason/31.PNG,materials/goodpropose/31.PNG,materials/sadending/31.PNG,0,29,29,29,,,,,,,,,,,,,2090.5265667999993,0.007120700000086799,[0.21458333333333332],[-0.18680555555555556],[1],[0],[0],[2.4462778000015533],2092.9796489,0.0064240000010613585,[0.18472222222222223],[-0.1111111111111111],[1],[0],[0],[3.718590000000404],2096.7122817,0.012398400000165566,[],[],[],[],[],[],2099.0050392999983,2102.0080929999986,2104.3197402999995,2104.3197402999995,2104.3197402999995,2104.3197402999995,2.3020833333333335,0.523602999999639,2104.8529254999994,2110.8588673999984,2110.8588673999984,2110.8588673999984,2110.8588673999984,2110.8588673999984,None,2110.8588673999984,2110.8588673999984,2110.8588673999984,2110.8588673999984,None,,,2102.0080929999986,,,,,,102,1,-1,2023-02-20_11h57.28.576,Moral_Emotion_Task,2022.2.4,None,
左兰,左兰告诉助理不用佩戴防护装置。她的助理在小岛,左兰告诉助理不用戴防护装置这种行为：,34,badPsadE,materials/situations/34.PNG,materials/sadreason/34.PNG,materials/badpropose/34.PNG,materials/sadending/34.PNG,0,30,30,30,,,,,,,,,,,,,2110.8588673999984,0.007329500000196276,[0.0020833333333333333],[-0.2263888888888889],[1],[0],[0],[3.823406800000157],2114.6936940999985,0.0074022000007971656,[-0.014583333333333334],[-0.24305555555555555],[1],[0],[0],[2.319017599998915],2117.0260180999994,0.017310200000792975,[],[],[],[],[],[],2119.321248799999,2122.3170458999994,2124.6182863999984,2124.6182863999984,2124.6182863999984,2124.6182863999984,1,3.6614552999999432,2128.2947336999987,2132.3044002999995,2132.3044002999995,2132.3044002999995,2132.3044002999995,2132.3044002999995,None,2132.3044002999995,2132.3044002999995,2132.3044002999995,2132.3044002999995,None,,,,,,,,,102,1,-1,2023-02-20_11h57.28.576,Moral_Emotion_Task,2022.2.4,None,
陈钢,陈钢同意飞机起飞。飞机,陈钢没有再要求清理跑道这种行为是：,16,badPhappyE,materials/situations/16.PNG,materials/happyreason/16.PNG,materials/badpropose/16.PNG,materials/happyending/16.PNG,0,31,31,31,,,,,,,,,,,,,2132.3044002999995,0.013575200000559562,[-0.14791666666666667],[-0.04722222222222222],[1],[0],[0],[4.3246249000003445],2136.6415764999983,0.013354300001083175,[-0.11180555555555556],[-0.16666666666666666],[1],[0],[0],[2.859376999998858],2139.5088526,0.0066515999988041585,[],[],[],[],[],[],2141.8049887999987,2144.8125476999994,2147.130324399999,2147.130324399999,2147.130324399999,2147.130324399999,6.359375,2.6937665000004927,2149.812732799999,2153.8196247999986,2153.8196247999986,2153.8196247999986,2153.8196247999986,2153.8196247999986,None,2153.8196247999986,2153.8196247999986,2153.8196247999986,2153.8196247999986,None,2141.8049887999987,2.295444800000041,2144.8125476999994,,,,,,102,1,-1,2023-02-20_11h57.28.576,Moral_Emotion_Task,2022.2.4,None,
唐静,唐静让妹妹在桌边玩。唐静的妹妹,唐静让妹妹在桌边玩这种行为是：,13,badPsadE,materials/situations/13.PNG,materials/sadreason/13.PNG,materials/badpropose/13.PNG,materials/sadending/13.PNG,0,32,32,32,,,,,,,,,,,,,2153.8196247999986,0.013119400000505266,[0.28194444444444444],[-0.22291666666666668],[1],[0],[0],[3.208527700000559],2157.0361982999984,0.007646700001714635,[0.21041666666666667],[-0.24861111111111112],[1],[0],[0],[2.3640321000002587],2159.415178699999,0.011911399999007699,[],[],[],[],[],[],2161.7219152,2164.731759799999,2167.0133337999996,2167.0133337999996,2167.0133337999996,2167.0133337999996,1.0572916666666665,4.094238600000608,2171.1091927999987,2176.1106764999986,2176.1106764999986,2176.1106764999986,2176.1106764999986,2176.1106764999986,None,2176.1106764999986,2176.1106764999986,2176.1106764999986,2176.1106764999986,None,,,,,,,,,102,1,-1,2023-02-20_11h57.28.576,Moral_Emotion_Task,2022.2.4,None,
叶蓉,叶蓉把小狗卖给女顾客。小狗,叶蓉把小狗卖给女顾客这种行为：,39,goodPhappyE,materials/situations/39.PNG,materials/happyreason/39.PNG,materials/goodpropose/39.PNG,materials/happyending/39.PNG,0,33,33,33,,,,,,,,,,,,,2176.1106764999986,0.0068505000017466955,[0.09305555555555556],[-0.23125],[1],[0],[0],[4.417249199999787],2180.5395627,0.008187100000213832,[0.1076388888888889],[-0.2152777777777778],[1],[0],[0],[2.070358599999963],2182.6128936999994,0.005983699998978409,[],[],[],[],[],[],2184.9076701999984,2187.9122886999994,2190.2076467999996,2190.2076467999996,2190.2076467999996,2190.2076467999996,7,3.1836387000003015,2193.3947904999986,2197.395945799999,2197.395945799999,2197.395945799999,2197.395945799999,2197.395945799999,None,2197.395945799999,2197.395945799999,2197.395945799999,2197.395945799999,None,2184.9076701999984,2.296547299998565,2187.9122886999994,,,2190.2076467999996,,,102,1,-1,2023-02-20_11h57.28.576,Moral_Emotion_Task,2022.2.4,None,
许乐,许乐让男朋友去碎浪那边游泳。她的男朋友,许乐让男朋友去碎浪那边游泳这种行为：,42,badPsadE,materials/situations/42.PNG,materials/sadreason/42.PNG,materials/badpropose/42.PNG,materials/sadending/42.PNG,0,34,34,34,,,,,,,,,,,,,2197.395945799999,0.008486300001095515,[0.10902777777777778],[-0.13402777777777777],[1],[0],[0],[3.2547769000011613],2200.6640000999996,0.01242420000016864,[0.06111111111111111],[-0.10972222222222222],[1],[0],[0],[4.0043038000003435],2204.6794329999993,0.006947300000319956,[],[],[],[],[],[],2206.9796063999984,2209.9802741999993,2212.2940789999993,2212.2940789999993,2212.2940789999993,2212.2940789999993,1.0520833333333335,2.1412990000007994,2214.4284210999995,2217.4309728999997,2217.4309728999997,2217.4309728999997,2217.4309728999997,2217.4309728999997,None,2217.4309728999997,2217.4309728999997,2217.4309728999997,2217.4309728999997,None,,,,,,,,,102,1,-1,2023-02-20_11h57.28.576,Moral_Emotion_Task,2022.2.4,None,
方远,方远只顾自己继续吃饭。那名顾客,方远只顾自己继续吃饭这种行为：,43,goodPhappyE,materials/situations/43.PNG,materials/happyreason/43.PNG,materials/goodpropose/43.PNG,materials/happyending/43.PNG,0,35,35,35,,,,,,,,,,,,,2217.4309728999997,0.00943589999951655,[-0.14166666666666666],[-0.08819444444444445],[1],[0],[0],[3.2016015999997762],2220.6403954999987,0.006701599999360042,[-0.14166666666666666],[-0.08819444444444445],[1],[0],[0],[3.0690243000008195],2223.7152616999992,0.006065499999749591,[],[],[],[],[],[],2226.0092938999987,2229.0149561,2231.3138586999994,2231.3138586999994,2231.3138586999994,2231.3138586999994,7,1.8308916999994835,2233.152340499999,2237.1580158999986,2237.1580158999986,2237.1580158999986,2237.1580158999986,2237.1580158999986,None,2237.1580158999986,2237.1580158999986,2237.1580158999986,2237.1580158999986,None,2226.0092938999987,2.2952155000002676,,,,2231.3138586999994,,,102,1,-1,2023-02-20_11h57.28.576,Moral_Emotion_Task,2022.2.4,None,
刘芸,刘芸喂侄女米粉。小女孩吃下米粉后,刘芸喂侄女米粉这种行为：,36,goodPsadE,materials/situations/36.PNG,materials/sadreason/36.PNG,materials/goodpropose/36.PNG,materials/sadending/36.PNG,0,36,36,36,,,,,,,,,,,,,2237.1580158999986,0.009001899999930174,[-0.002777777777777778],[-0.14305555555555555],[1],[0],[0],[3.7744519999996555],2240.9424865,0.007135899999411777,[0.20347222222222222],[-0.21319444444444444],[1],[0],[0],[8.195168000000194],2249.1446639999995,0.008283400000436814,[],[],[],[],[],[],2251.4410269,2254.4377798999994,2256.759581099999,2256.759581099999,2256.759581099999,2256.759581099999,4.552083333333333,5.587865100000272,2262.3404818,2267.338733999999,2267.338733999999,2267.338733999999,2267.338733999999,2267.338733999999,None,2267.338733999999,2267.338733999999,2267.338733999999,2267.338733999999,None,2251.4410269,2.2985606999991433,2254.4377798999994,,,,,,102,1,-1,2023-02-20_11h57.28.576,Moral_Emotion_Task,2022.2.4,None,
路明,路明让伙伴爬上树屋。他的朋友,路明让伙伴爬上树屋这种行为：,41,badPhappyE,materials/situations/41.PNG,materials/happyreason/41.PNG,materials/badpropose/41.PNG,materials/happyending/41.PNG,0,37,37,37,,,,,,,,,,,,,2267.338733999999,0.008385299999645213,[0.09861111111111111],[-0.1284722222222222],[1],[0],[0],[4.225281400000313],2271.571536199999,0.00747129999945173,[-0.15763888888888888],[-0.10625],[1],[0],[0],[1.994588899999144],2273.5719132999984,0.0069162999989202945,[],[],[],[],[],[],2275.868236099999,2278.8748349999987,2281.1807482999993,2281.1807482999993,2281.1807482999993,2281.1807482999993,3.3489583333333335,3.0566775999996025,2284.249698399999,2290.2576112999996,2290.2576112999996,2290.2576112999996,2290.2576112999996,2290.2576112999996,None,2290.2576112999996,2290.2576112999996,2290.2576112999996,2290.2576112999996,None,2275.868236099999,2.2984068999994633,2278.8748349999987,,,,,,102,1,-1,2023-02-20_11h57.28.576,Moral_Emotion_Task,2022.2.4,None,
杨乐,"杨乐跳过这一段铁轨的工作。这段铁轨开始运营,",杨乐跳过这一段铁轨工作这种行为是：,17,goodPsadE,materials/situations/17.PNG,materials/sadreason/17.PNG,materials/goodpropose/17.PNG,materials/sadending/17.PNG,0,38,38,38,,,,,,,,,,,,,2290.2576112999996,0.007537699999375036,[-0.12986111111111112],[-0.19444444444444445],[1],[0],[0],[2.8573586999991676],2293.1205652999997,0.0071927000008145114,[-0.14722222222222223],[-0.1375],[1],[0],[0],[3.048494300001039],2296.1770948999983,0.006995699999606586,[],[],[],[],[],[],2298.467563299999,2301.4708327999997,2303.7727128999995,2303.7727128999995,2303.7727128999995,2303.7727128999995,2.4583333333333335,0.24153060000026016,2304.0234664,2308.0260368,2308.0260368,2308.0260368,2308.0260368,2308.0260368,None,2308.0260368,2308.0260368,2308.0260368,2308.0260368,None,2298.467563299999,2.297506599999906,2301.4708327999997,,,2303.7727128999995,,,102,1,-1,2023-02-20_11h57.28.576,Moral_Emotion_Task,2022.2.4,None,
马超,马超继续读着报纸。孩子,马超继续读着报纸这种行为：,44,goodPsadE,materials/situations/44.PNG,materials/sadreason/44.PNG,materials/goodpropose/44.PNG,materials/sadending/44.PNG,0,39,39,39,,,,,,,,,,,,,2308.0260368,0.012429399999746238,[-0.05763888888888889],[-0.2513888888888889],[1],[0],[0],[4.9321696999995766],2312.9719566999993,0.012848699998357915,[-0.12638888888888888],[-0.2861111111111111],[1],[0],[0],[2.605087599999024],2315.588101399999,0.01261990000057267,[],[],[],[],[],[],2317.8880461999997,2320.8901499999993,2323.1884075,2323.1884075,2323.1884075,2323.1884075,2.0572916666666665,4.574911900001098,2327.7582411999992,2333.7588917999983,2333.7588917999983,2333.7588917999983,2333.7588917999983,2333.7588917999983,None,2333.7588917999983,2333.7588917999983,2333.7588917999983,2333.7588917999983,None,,,,,,,,,102,1,-1,2023-02-20_11h57.28.576,Moral_Emotion_Task,2022.2.4,None,
徐娜,徐娜叫她的朋友到冰屋里玩。她的朋友,徐娜叫朋友到冰屋里玩这种行为是：,19,goodPsadE,materials/situations/19.PNG,materials/sadreason/19.PNG,materials/goodpropose/19.PNG,materials/sadending/19.PNG,0,40,40,40,,,,,,,,,,,,,2333.7588917999983,0.007529100001193001,[-0.35347222222222224],[-0.2361111111111111],[1],[0],[0],[2.599859199999628],2336.3635853999986,0.007860400000936352,[-0.4236111111111111],[-0.28125],[1],[0],[0],[4.337298800001008],2340.710137799999,0.007975999998961925,[],[],[],[],[],[],2343.004826299999,2346.001822099999,2348.3047321999984,2348.3047321999984,2348.3047321999984,2348.3047321999984,2.755208333333333,12.567461200000253,2360.8738104999993,2365.8773217,2365.8773217,2365.8773217,2365.8773217,2365.8773217,None,2365.8773217,2365.8773217,2365.8773217,2365.8773217,None,2343.004826299999,2.2963135999998485,2346.001822099999,,,2348.3047321999984,,,102,1,-1,2023-02-20_11h57.28.576,Moral_Emotion_Task,2022.2.4,None,
丁怡,丁怡让邻居下海游泳。邻居,丁怡让邻居去海里游泳这种行为是：,3,goodPhappyE,materials/situations/3.PNG,materials/happyreason/3.PNG,materials/goodpropose/3.PNG,materials/happyending/3.PNG,0,41,41,41,,,,,,,,,,,,,2365.8773217,0.009850899999946705,[-0.24444444444444444],[-0.27708333333333335],[1],[0],[0],[2.7237249000008887],2368.6085464999996,0.007167499999923166,[-0.2798611111111111],[-0.2590277777777778],[1],[0],[0],[2.0070297999991453],2370.6228087,0.007535500000813045,[],[],[],[],[],[],2372.9256440999998,2375.9264577999984,2378.2325977,2378.2325977,2378.2325977,2378.2325977,6.53125,1.6130396999997174,2379.848965699999,2384.8514946999985,2384.8514946999985,2384.8514946999985,2384.8514946999985,2384.8514946999985,None,2384.8514946999985,2384.8514946999985,2384.8514946999985,2384.8514946999985,None,,,,,,,,,102,1,-1,2023-02-20_11h57.28.576,Moral_Emotion_Task,2022.2.4,None,
苏珍,苏珍把学生分到非过敏体质班。这个学生,苏珍把学生分到非过敏体质班这种行为：,28,goodPsadE,materials/situations/28.PNG,materials/sadreason/28.PNG,materials/goodpropose/28.PNG,materials/sadending/28.PNG,0,42,42,42,,,,,,,,,,,,,2384.8514946999985,0.008230499999626772,[0.2763888888888889],[-0.18888888888888888],[1],[0],[0],[3.742186800000127],2388.597044599999,0.0077543000006699,[0.175],[-0.30833333333333335],[1],[0],[0],[8.084232799999882],2396.688172099999,0.00710849999995844,[],[],[],[],[],[],2398.9934988999994,2401.9952416999986,2404.2909068999998,2404.2909068999998,2404.2909068999998,2404.2909068999998,1.8072916666666665,5.929403000000093,2410.227647399999,2416.2398097999994,2416.2398097999994,2416.2398097999994,2416.2398097999994,2416.2398097999994,None,2416.2398097999994,2416.2398097999994,2416.2398097999994,2416.2398097999994,None,2398.9934988999994,2.297816000000239,,,,,,,102,1,-1,2023-02-20_11h57.28.576,Moral_Emotion_Task,2022.2.4,None,
罗格,罗格没有管他的朋友。他的朋友,罗格没有管他的朋友这种行为是：,15,goodPhappyE,materials/situations/15.PNG,materials/happyreason/15.PNG,materials/goodpropose/15.PNG,materials/happyending/15.PNG,0,43,43,43,,,,,,,,,,,,,2416.2398097999994,0.008134600000630599,[-0.18541666666666667],[-0.3],[1],[0],[0],[4.846709499999633],2421.0969210999992,0.012943900001118891,[-0.2125],[-0.33541666666666664],[1],[0],[0],[3.064185900000666],2424.1782820999997,0.012398099999700207,[-0.22083333333333333],[-0.32708333333333334],[1],[0],[0],[1.990913300000102],2426.1682900999986,2429.1854606999987,2431.4760919,2431.4760919,2431.4760919,2431.4760919,4.755208333333334,6.202659200000198,2437.6880192999997,2443.6980229,2443.6980229,2443.6980229,2443.6980229,2443.6980229,None,2443.6980229,2443.6980229,2443.6980229,2443.6980229,None,,,2429.1854606999987,,,,,,102,1,-1,2023-02-20_11h57.28.576,Moral_Emotion_Task,2022.2.4,None,
李贝,李贝把这些肉给孩子们吃。孩子们,李贝把这些肉给孩子们吃这种行为是：,14,goodPsadE,materials/situations/14.PNG,materials/sadreason/14.PNG,materials/goodpropose/14.PNG,materials/sadending/14.PNG,0,44,44,44,,,,,,,,,,,,,2443.6980229,0.008307999998578453,[0.050694444444444445],[-0.1125],[1],[0],[0],[3.239594799999395],2446.943865899999,0.012128200000006473,[0.07083333333333333],[-0.13819444444444445],[1],[0],[0],[3.3062050999997155],2450.2611554999985,0.007341999998971005,[],[],[],[],[],[],2452.5751176999984,2455.5743499,2457.8840537999986,2457.8840537999986,2457.8840537999986,2457.8840537999986,2.9322916666666665,7.056086599999617,2464.934083099999,2468.9283504999985,2468.9283504999985,2468.9283504999985,2468.9283504999985,2468.9283504999985,None,2468.9283504999985,2468.9283504999985,2468.9283504999985,2468.9283504999985,None,,,,,,,,,102,1,-1,2023-02-20_11h57.28.576,Moral_Emotion_Task,2022.2.4,None,
郑宇,郑宇没有阻止朋友开枪。子弹射中了,郑宇没有阻止朋友开枪这种行为：,26,badPhappyE,materials/situations/26.PNG,materials/happyreason/26.PNG,materials/badpropose/26.PNG,materials/happyending/26.PNG,0,45,45,45,,,,,,,,,,,,,2468.9283504999985,0.007419999999910942,[0.09166666666666666],[-0.043055555555555555],[1],[0],[0],[3.861834200000885],2472.8067029999984,0.014650299999630079,[0.11805555555555555],[0.007638888888888889],[1],[0],[0],[3.45422729999882],2476.269049999999,0.007686200000534882,[],[],[],[],[],[],2478.5675502999984,2481.572838,2483.873351799999,2483.873351799999,2483.873351799999,2483.873351799999,2.942708333333333,3.1593792000003305,2487.0392930999988,2493.0385301999995,2493.0385301999995,2493.0385301999995,2493.0385301999995,2493.0385301999995,None,2493.0385301999995,2493.0385301999995,2493.0385301999995,2493.0385301999995,None,,,2481.572838,,,,,,102,1,-1,2023-02-20_11h57.28.576,Moral_Emotion_Task,2022.2.4,None,
李浩,李浩不理会侄子胃疼。他的侄子很快就,李浩不理会侄子胃疼这种行为：,31,badPsadE,materials/situations/31.PNG,materials/sadreason/31.PNG,materials/badpropose/31.PNG,materials/sadending/31.PNG,0,46,46,46,,,,,,,,,,,,,2493.0385301999995,0.006893499999932828,[-0.05138888888888889],[-0.2298611111111111],[1],[0],[0],[1.7495235999995202],2494.7915765999987,0.007058099999994738,[-0.11666666666666667],[-0.275],[1],[0],[0],[2.3861920999988797],2497.1834019999988,0.0061765000009472715,[],[],[],[],[],[],2499.4862876999996,2502.481281799999,2504.7804515999997,2504.7804515999997,2504.7804515999997,2504.7804515999997,1,3.2259229000010237,2508.0170811999997,2512.024355899999,2512.024355899999,2512.024355899999,2512.024355899999,2512.024355899999,None,2512.024355899999,2512.024355899999,2512.024355899999,2512.024355899999,None,,,2502.481281799999,,,2504.7804515999997,,,102,1,-1,2023-02-20_11h57.28.576,Moral_Emotion_Task,2022.2.4,None,
韩珍,韩珍悄悄走开。小孩,韩珍悄悄走开这种行为是：,5,goodPsadE,materials/situations/5.PNG,materials/sadreason/5.PNG,materials/goodpropose/5.PNG,materials/sadending/5.PNG,0,47,47,47,,,,,,,,,,,,,2512.024355899999,0.007869399998526205,[-0.2777777777777778],[-0.19583333333333333],[1],[0],[0],[2.9412967000007484],2514.9691753999996,0.0062344999987544725,[-0.29097222222222224],[-0.18888888888888888],[1],[0],[0],[1.7610332999993261],2516.744204499999,0.012955000000147265,[],[],[],[],[],[],2519.046836399999,2522.0431854,2524.350854099999,2524.350854099999,2524.350854099999,2524.350854099999,1,2.6059058000009827,2526.9630244,2530.9623532999994,2530.9623532999994,2530.9623532999994,2530.9623532999994,2530.9623532999994,None,2530.9623532999994,2530.9623532999994,2530.9623532999994,2530.9623532999994,None,,,,,,,,,102,1,-1,2023-02-20_11h57.28.576,Moral_Emotion_Task,2022.2.4,None,
史琴,史琴给朋友系上安全带。她的朋友,史琴给朋友系上安全带这种行为是：,18,goodPsadE,materials/situations/18.PNG,materials/sadreason/18.PNG,materials/goodpropose/18.PNG,materials/sadending/18.PNG,0,48,48,48,,,,,,,,,,,,,2530.9623532999994,0.00705049999851326,[-0.22847222222222222],[-0.0020833333333333333],[1],[0],[0],[3.825984900000549],2534.7924416999995,0.006449599999541533,[-0.12708333333333333],[-0.001388888888888889],[1],[0],[0],[3.3576850999997987],2538.1618621999987,0.007825900000170805,[-0.11944444444444445],[0.13680555555555557],[1],[0],[0],[2.2603698000002623],2540.4263950999994,2543.429178999999,2545.7261872,2545.7261872,2545.7261872,2545.7261872,4.578125,3.949693299999126,2549.6800245999984,2553.6757924999984,2553.6757924999984,2553.6757924999984,2553.6757924999984,2553.6757924999984,None,2553.6757924999984,2553.6757924999984,2553.6757924999984,2553.6757924999984,None,,,2543.429178999999,,,2545.7261872,,,102,1,-1,2023-02-20_11h57.28.576,Moral_Emotion_Task,2022.2.4,None,
左艳,左艳让孩子坐上缆车。孩子,左艳让孩子坐上缆车这种行为是：,23,goodPhappyE,materials/situations/23.PNG,materials/happyreason/23.PNG,materials/goodpropose/23.PNG,materials/happyending/23.PNG,0,49,49,49,,,,,,,,,,,,,2553.6757924999984,0.008246100000178558,[0.2625],[-0.1486111111111111],[1],[0],[0],[3.7946780000002036],2557.4784364999996,0.006871100000353181,[0.24513888888888888],[-0.16597222222222222],[1],[0],[0],[7.481744799999433],2564.974521799999,0.007537199999205768,[],[],[],[],[],[],2567.274887899999,2570.279158399999,2572.5771041999997,2572.5771041999997,2572.5771041999997,2572.5771041999997,5.786458333333334,1.6369673000008333,2574.2218939999984,2579.214690499999,2579.214690499999,,2579.214690499999,,space,2624.0036784999993,,2624.0036784999993,,s,,,,,,,44.7698689000008,19.437701100001505,102,1,-1,2023-02-20_11h57.28.576,Moral_Emotion_Task,2022.2.4,None,
程峰,程峰没有提醒客户。客户继续使用这台电脑,程峰没有提醒客户这种行为：,48,badPsadE,materials/situations/48.PNG,materials/sadreason/48.PNG,materials/badpropose/48.PNG,materials/sadending/48.PNG,0,50,50,50,,,,,,,,,,,,,2643.4709901999995,0.013543900000513531,[-0.18055555555555555],[-0.22916666666666666],[1],[0],[0],[8.797558800000843],2652.2794778999996,0.014049400000658352,[-0.18055555555555555],[-0.22916666666666666],[1],[0],[0],[3.725319400000444],2656.0170141,0.012439699999958975,[],[],[],[],[],[],2658.3201372999993,2661.3292046999995,2663.6230258999985,2663.6230258999985,2663.6230258999985,2663.6230258999985,1.03125,2.559368899999754,2666.1827853999985,2669.1865375999987,2669.1865375999987,2669.1865375999987,2669.1865375999987,2669.1865375999987,None,2669.1865375999987,2669.1865375999987,2669.1865375999987,2669.1865375999987,None,,,,,,,,,102,1,-1,2023-02-20_11h57.28.576,Moral_Emotion_Task,2022.2.4,None,
杨鹏,杨鹏马上让妻子吃药。他的妻子,杨鹏马上让妻子吃药这种行为是：,10,badPsadE,materials/situations/10.PNG,materials/sadreason/10.PNG,materials/badpropose/10.PNG,materials/sadending/10.PNG,0,51,51,51,,,,,,,,,,,,,2669.1865375999987,0.014900599999236874,[-0.09583333333333334],[0.09236111111111112],[1],[0],[0],[6.289102400000047],2675.484354099999,0.006978800000069896,[-0.15625],[0.07361111111111111],[1],[0],[0],[4.667599100001098],2680.1597494999987,0.007114699999874574,[],[],[],[],[],[],2682.457165399999,2685.4643510999995,2687.7628587,2687.7628587,2687.7628587,2687.7628587,1,3.8895452999986446,2691.660580599999,2697.6623211999995,2697.6623211999995,2697.6623211999995,2697.6623211999995,2697.6623211999995,None,2697.6623211999995,2697.6623211999995,2697.6623211999995,2697.6623211999995,None,2682.457165399999,2.2978029000005336,,,,,,,102,1,-1,2023-02-20_11h57.28.576,Moral_Emotion_Task,2022.2.4,None,
孙丽,孙丽没有提醒老人。老人走过去，,孙丽没有提醒老人这种行为：,46,goodPhappyE,materials/situations/46.PNG,materials/happyreason/46.PNG,materials/goodpropose/46.PNG,materials/happyending/46.PNG,0,52,52,52,,,,,,,,,,,,,2697.6623211999995,0.007465999999112682,[-0.37222222222222223],[-0.10902777777777778],[1],[0],[0],[5.148999200000617],2702.82611,0.013015300000915886,[-0.43333333333333335],[-0.11736111111111111],[1],[0],[0],[3.6198160000003554],2706.4601386999984,0.013188299999455921,[],[],[],[],[],[],2708.7685231999985,2711.7663036999984,2714.064601599999,2714.064601599999,2714.064601599999,2714.064601599999,5.838541666666667,1.4096044999987498,2715.4837972999994,2718.490476699999,2718.490476699999,2718.490476699999,2718.490476699999,2718.490476699999,None,2718.490476699999,2718.490476699999,2718.490476699999,2718.490476699999,None,,,,,,,,,102,1,-1,2023-02-20_11h57.28.576,Moral_Emotion_Task,2022.2.4,None,
罗兰,罗兰把蘑菇给朋友吃。罗兰的朋友,罗兰把蘑菇送给朋友吃这种行为是：,6,badPsadE,materials/situations/6.PNG,materials/sadreason/6.PNG,materials/badpropose/6.PNG,materials/sadending/6.PNG,0,53,53,53,,,,,,,,,,,,,2718.490476699999,0.008059800000410178,[0.041666666666666664],[-0.16111111111111112],[1],[0],[0],[3.5874848000003112],2722.0832569999984,0.006824399999459274,[0.024305555555555556],[-0.1527777777777778],[1],[0],[0],[2.4184693999995943],2724.5170977999987,0.012256500000148662,[0.03194444444444444],[-0.1527777777777778],[1],[0],[0],[2.247076699999525],2726.766512299999,2729.770994299999,2732.068965999999,2732.068965999999,2732.068965999999,2732.068965999999,1,6.927739700000529,2738.9998425999984,2744.9978714999997,2744.9978714999997,2744.9978714999997,2744.9978714999997,2744.9978714999997,None,2744.9978714999997,2744.9978714999997,2744.9978714999997,2744.9978714999997,None,,,2729.770994299999,,,2732.068965999999,,,102,1,-1,2023-02-20_11h57.28.576,Moral_Emotion_Task,2022.2.4,None,
林蕾,林蕾把粉末放进朋友咖啡里。林蕾的朋友喝完咖啡后,林蕾把粉末放进朋友咖啡里这种行为：,1,goodPsadE,materials/situations/1.PNG,materials/sadreason/1.PNG,materials/goodpropose/1.PNG,materials/sadending/1.PNG,0,54,54,54,,,,,,,,,,,,,2744.9978714999997,0.007754800000839168,[-0.15694444444444444],[-0.10555555555555556],[1],[0],[0],[3.2788860999989993],2748.283746199999,0.006975100001000101,[-0.058333333333333334],[-0.02847222222222222],[1],[0],[0],[1.5021149999993213],2749.7983448999985,0.007627599999977974,[],[],[],[],[],[],2752.0924897999994,2755.1003297999996,2757.3992824999987,2757.3992824999987,2757.3992824999987,2757.3992824999987,3.328125,7.412010300000475,2764.8144477999995,2768.8136984999983,2768.8136984999983,2768.8136984999983,2768.8136984999983,2768.8136984999983,None,2768.8136984999983,2768.8136984999983,2768.8136984999983,2768.8136984999983,None,,,,,,,,,102,1,-1,2023-02-20_11h57.28.576,Moral_Emotion_Task,2022.2.4,None,
李浩,李浩不理会侄子胃疼。他的侄子很快就,李浩不理会侄子胃疼这种行为：,31,goodPhappyE,materials/situations/31.PNG,materials/happyreason/31.PNG,materials/goodpropose/31.PNG,materials/happyending/31.PNG,0,55,55,55,,,,,,,,,,,,,2768.8136984999983,0.008953399999882095,[-0.09930555555555555],[-0.19375],[1],[0],[0],[1.6601704000004247],2770.4811628999996,0.006215000001247972,[-0.030555555555555555],[-0.2763888888888889],[1],[0],[0],[2.408593199999814],2772.8968116999986,0.0063918000014382415,[],[],[],[],[],[],2775.2010250999992,2778.2080578999994,2780.503808399999,2780.503808399999,2780.503808399999,2780.503808399999,5.869791666666666,1.2262245000001712,2781.7430711999987,2786.7450989999998,2786.7450989999998,2786.7450989999998,2786.7450989999998,2786.7450989999998,None,2786.7450989999998,2786.7450989999998,2786.7450989999998,2786.7450989999998,None,,,,,,,,,102,1,-1,2023-02-20_11h57.28.576,Moral_Emotion_Task,2022.2.4,None,
丁怡,丁怡让邻居下海游泳。邻居,丁怡让邻居去海里游泳这种行为是：,3,badPsadE,materials/situations/3.PNG,materials/sadreason/3.PNG,materials/badpropose/3.PNG,materials/sadending/3.PNG,0,56,56,56,,,,,,,,,,,,,2786.7450989999998,0.007056799999190844,[-0.08958333333333333],[-0.017361111111111112],[1],[0],[0],[3.3423836000001756],2790.0996464,0.014465500000369502,[0.027083333333333334],[0.07777777777777778],[1],[0],[0],[1.9123435000001336],2792.0254752,0.012253699998836964,[0.02847222222222222],[0.13958333333333334],[1],[0],[0],[1.413691399999152],2793.4401880999994,2796.4439413,2798.7438059999986,2798.7438059999986,2798.7438059999986,2798.7438059999986,1,5.896415799999886,2804.6459388999992,2807.641106199999,2807.641106199999,2807.641106199999,2807.641106199999,2807.641106199999,None,2807.641106199999,2807.641106199999,2807.641106199999,2807.641106199999,None,,,2796.4439413,,,2798.7438059999986,,,102,1,-1,2023-02-20_11h57.28.576,Moral_Emotion_Task,2022.2.4,None,
苏珍,苏珍把学生分到非过敏体质班。这个学生,苏珍把学生分到非过敏体质班这种行为：,28,badPhappyE,materials/situations/28.PNG,materials/happyreason/28.PNG,materials/badpropose/28.PNG,materials/happyending/28.PNG,0,57,57,57,,,,,,,,,,,,,2807.641106199999,0.007812299998477101,[-0.06319444444444444],[0.058333333333333334],[1],[0],[0],[2.225722399998631],2809.8764077999986,0.006791300000259071,[0.04027777777777778],[0.13819444444444445],[1],[0],[0],[2.6316750000005413],2812.5162222,0.007817900001100497,[],[],[],[],[],[],2814.8182244,2817.816853099999,2820.1156323999985,2820.1156323999985,2820.1156323999985,2820.1156323999985,6.84375,2.324847600000794,2822.4499112999983,2828.4539228999984,2828.4539228999984,2828.4539228999984,2828.4539228999984,2828.4539228999984,None,2828.4539228999984,2828.4539228999984,2828.4539228999984,2828.4539228999984,None,,,,,,2820.1156323999985,,,102,1,-1,2023-02-20_11h57.28.576,Moral_Emotion_Task,2022.2.4,None,
程峰,程峰没有提醒客户。客户继续使用这台电脑,程峰没有提醒客户这种行为：,48,goodPsadE,materials/situations/48.PNG,materials/sadreason/48.PNG,materials/goodpropose/48.PNG,materials/sadending/48.PNG,0,58,58,58,,,,,,,,,,,,,2828.4539228999984,0.008116099999824655,[-0.013194444444444444],[0.08263888888888889],[1],[0],[0],[2.473894599999767],2830.935411999999,0.00823599999966973,[-0.025],[0.24722222222222223],[1],[0],[0],[1.6693845999998302],2832.6140922999984,0.007638600000063889,[],[],[],[],[],[],2834.918439199999,2837.9123929999987,2840.2109155999988,2840.2109155999988,2840.2109155999988,2840.2109155999988,3.2604166666666665,3.2140416000002006,2843.4370437999987,2848.4395595999995,2848.4395595999995,2848.4395595999995,2848.4395595999995,2848.4395595999995,None,2848.4395595999995,2848.4395595999995,2848.4395595999995,2848.4395595999995,None,,,,,,2840.2109155999988,,,102,1,-1,2023-02-20_11h57.28.576,Moral_Emotion_Task,2022.2.4,None,
刘晓,刘晓把芝麻放进菜里。客人,刘晓把芝麻放进菜里这种行为是：,11,goodPsadE,materials/situations/11.PNG,materials/sadreason/11.PNG,materials/goodpropose/11.PNG,materials/sadending/11.PNG,0,59,59,59,,,,,,,,,,,,,2848.4395595999995,0.009001299998999457,[-0.07569444444444444],[-0.05416666666666667],[1],[0],[0],[4.354760700000043],2852.8050251999994,0.012343899999905261,[0.13680555555555557],[0.07847222222222222],[1],[0],[0],[2.246247700000822],2855.0654133999997,0.012503199999628123,[],[],[],[],[],[],2857.3669480999997,2860.3720599999997,2862.666201099999,2862.666201099999,2862.666201099999,2862.666201099999,4.401041666666667,3.814379600000393,2866.4821579,2872.483604699999,2872.483604699999,2872.483604699999,2872.483604699999,2872.483604699999,None,2872.483604699999,2872.483604699999,2872.483604699999,2872.483604699999,None,,,,,,,,,102,1,-1,2023-02-20_11h57.28.576,Moral_Emotion_Task,2022.2.4,None,
罗格,罗格没有管他的朋友。他的朋友,罗格没有管他的朋友这种行为是：,15,goodPsadE,materials/situations/15.PNG,materials/sadreason/15.PNG,materials/goodpropose/15.PNG,materials/sadending/15.PNG,0,60,60,60,,,,,,,,,,,,,2872.483604699999,0.00899800000115647,[0.05],[0.050694444444444445],[1],[0],[0],[3.15041889999884],2875.6442591999985,0.008227199999964796,[0.06805555555555555],[0.23472222222222222],[1],[0],[0],[2.3231485999986035],2877.9742198999993,0.006800700000894722,[],[],[],[],[],[],2880.2691108,2883.280329199999,2885.5804352999985,2885.5804352999985,2885.5804352999985,2885.5804352999985,1,3.2716536999996606,2888.8507862999995,2892.8601553999997,2892.8601553999997,2892.8601553999997,2892.8601553999997,2892.8601553999997,None,2892.8601553999997,2892.8601553999997,2892.8601553999997,2892.8601553999997,None,2880.2691108,2.297916499999701,,,,,,,102,1,-1,2023-02-20_11h57.28.576,Moral_Emotion_Task,2022.2.4,None,
赵晨,赵晨鼓励朋友下去游泳。赵晨的朋友在池塘,赵晨鼓励朋友下去游泳这种行为：,25,goodPsadE,materials/situations/25.PNG,materials/sadreason/25.PNG,materials/goodpropose/25.PNG,materials/sadending/25.PNG,0,61,61,61,,,,,,,,,,,,,2892.8601553999997,0.008287999999083695,[0.07361111111111111],[0.07430555555555556],[1],[0],[0],[3.2581621000008454],2896.1237987999993,0.008205899999666144,[0.19722222222222222],[0.09722222222222222],[1],[0],[0],[3.1708079],2899.306996699999,0.0125015000012354,[],[],[],[],[],[],2901.6053901999985,2904.6193587,2906.9118337,2906.9118337,2906.9118337,2906.9118337,2.28125,2.8531027999997605,2909.775437299999,2913.777720099999,2913.777720099999,2913.777720099999,2913.777720099999,2913.777720099999,None,2913.777720099999,2913.777720099999,2913.777720099999,2913.777720099999,None,,,,,,,,,102,1,-1,2023-02-20_11h57.28.576,Moral_Emotion_Task,2022.2.4,None,
赵智,赵智默默离开。挥手那人,赵智默默离开这种行为是：,8,goodPsadE,materials/situations/8.PNG,materials/sadreason/8.PNG,materials/goodpropose/8.PNG,materials/sadending/8.PNG,0,62,62,62,,,,,,,,,,,,,2913.777720099999,0.006665200000497862,[-0.011111111111111112],[-0.02013888888888889],[1],[0],[0],[5.639603199999328],2919.4297745999993,0.008514900000591297,[-0.011111111111111112],[-0.02013888888888889],[1],[0],[0],[2.133708800000022],2921.571784399999,0.013009199999942211,[],[],[],[],[],[],2923.8657563999986,2926.8671992,2929.1673885,2929.1673885,2929.1673885,2929.1673885,1.2083333333333333,2.134981900000639,2931.3153691999996,2936.3160651,2936.3160651,2936.3160651,2936.3160651,2936.3160651,None,2936.3160651,2936.3160651,2936.3160651,2936.3160651,None,,,2926.8671992,,,,,,102,1,-1,2023-02-20_11h57.28.576,Moral_Emotion_Task,2022.2.4,None,
唐巧,唐巧让男孩走进冒烟的房子。男孩,唐巧让男孩走进冒烟房子这种行为是：,24,goodPsadE,materials/situations/24.PNG,materials/sadreason/24.PNG,materials/goodpropose/24.PNG,materials/sadending/24.PNG,0,63,63,63,,,,,,,,,,,,,2936.3160651,0.007549199999630218,[0.09791666666666667],[-0.03680555555555556],[1],[0],[0],[4.22743679999985],2940.5557714999995,0.013203999998950167,[0.17083333333333334],[0.11527777777777778],[1],[0],[0],[4.1541528000016115],2944.7273692,0.014017499999681604,[],[],[],[],[],[],2947.0277892999984,2950.0275523,2952.332442499999,2952.332442499999,2952.332442499999,2952.332442499999,1,3.558462699998927,2955.8887430999985,2961.887933,2961.887933,2961.887933,2961.887933,2961.887933,None,2961.887933,2961.887933,2961.887933,2961.887933,None,,,,,,,,,102,1,-1,2023-02-20_11h57.28.576,Moral_Emotion_Task,2022.2.4,None,
方远,方远只顾自己继续吃饭。那名顾客,方远只顾自己继续吃饭这种行为：,43,goodPsadE,materials/situations/43.PNG,materials/sadreason/43.PNG,materials/goodpropose/43.PNG,materials/sadending/43.PNG,0,64,64,64,,,,,,,,,,,,,2961.887933,0.007108199999493081,[-0.37430555555555556],[-0.175],[1],[0],[0],[2.7011549999988347],2964.5987920999996,0.007153399999879184,[-0.4263888888888889],[-0.24375],[1],[0],[0],[2.2232150999989244],2966.827486099999,0.006498499998997431,[],[],[],[],[],[],2969.1195788999994,2972.1259439999994,2974.427529299999,2974.427529299999,2974.427529299999,2974.427529299999,3.0729166666666665,1.9186007000007521,2976.3491510999993,2980.3505568,2980.3505568,2980.3505568,2980.3505568,2980.3505568,None,2980.3505568,2980.3505568,2980.3505568,2980.3505568,None,2969.1195788999994,2.2958856000004744,2972.1259439999994,,,2974.427529299999,,,102,1,-1,2023-02-20_11h57.28.576,Moral_Emotion_Task,2022.2.4,None,
何伟,何伟让客人进入实验室。客人,何伟让客人进入实验室这种行为：,2,goodPhappyE,materials/situations/2.PNG,materials/happyreason/2.PNG,materials/goodpropose/2.PNG,materials/happyending/2.PNG,0,65,65,65,,,,,,,,,,,,,2980.3505568,0.007675599999856786,[-0.20694444444444443],[-0.23055555555555557],[1],[0],[0],[3.315213500000027],2983.677764,0.012483600001360173,[-0.05486111111111111],[-0.10902777777777778],[1],[0],[0],[3.693578600001274],2987.3767437999995,0.007269200001246645,[],[],[],[],[],[],2989.670788399999,2992.6738398999987,2994.9754233999993,2994.9754233999993,2994.9754233999993,2994.9754233999993,5.8125,2.9165929999999207,2997.9055240999987,3001.9172927,3001.9172927,3001.9172927,3001.9172927,3001.9172927,None,3001.9172927,3001.9172927,3001.9172927,3001.9172927,None,2989.670788399999,2.2933588000014424,2992.6738398999987,,,2994.9754233999993,,,102,1,-1,2023-02-20_11h57.28.576,Moral_Emotion_Task,2022.2.4,None,
李贝,李贝把这些肉给孩子们吃。孩子们,李贝把这些肉给孩子们吃这种行为是：,14,badPhappyE,materials/situations/14.PNG,materials/happyreason/14.PNG,materials/badpropose/14.PNG,materials/happyending/14.PNG,0,66,66,66,,,,,,,,,,,,,3001.9172927,0.007534799999120878,[0.38055555555555554],[0.018055555555555554],[1],[0],[0],[3.2431505999993533],3005.164766599999,0.007451400000718422,[0.49236111111111114],[0.07291666666666667],[1],[0],[0],[2.181382200000371],3007.3567685999988,0.0119209000004048,[],[],[],[],[],[],3009.6508214999994,3012.6477615999993,3014.9441996999994,3014.9441996999994,3014.9441996999994,3014.9441996999994,2.6302083333333335,0.34351910000077623,3015.298366199999,3019.296704799999,3019.296704799999,3019.296704799999,3019.296704799999,3019.296704799999,None,3019.296704799999,3019.296704799999,3019.296704799999,3019.296704799999,None,,,3012.6477615999993,,,3014.9441996999994,,,102,1,-1,2023-02-20_11h57.28.576,Moral_Emotion_Task,2022.2.4,None,
徐娜,徐娜叫她的朋友到冰屋里玩。她的朋友,徐娜叫朋友到冰屋里玩这种行为是：,19,goodPhappyE,materials/situations/19.PNG,materials/happyreason/19.PNG,materials/goodpropose/19.PNG,materials/happyending/19.PNG,0,67,67,67,,,,,,,,,,,,,3019.296704799999,0.007066200001645484,[-0.16111111111111112],[-0.1326388888888889],[1],[0],[0],[1.7976598000004742],3021.1029181999984,0.006361200001265388,[-0.24930555555555556],[-0.17777777777777778],[1],[0],[0],[2.37042079999992],3023.4838805,0.007359799999903771,[-0.2638888888888889],[-0.2652777777777778],[1],[0],[0],[1.7950814000014361],3025.2765419999996,3028.2823654999993,3030.584802199999,3030.584802199999,3030.584802199999,3030.584802199999,6.859375,2.489837200000693,3033.0740067999996,3039.0860592999998,3039.0860592999998,3039.0860592999998,3039.0860592999998,3039.0860592999998,None,3039.0860592999998,3039.0860592999998,3039.0860592999998,3039.0860592999998,None,,,3028.2823654999993,,,3030.584802199999,,,102,1,-1,2023-02-20_11h57.28.576,Moral_Emotion_Task,2022.2.4,None,
周燕,周燕没有提醒这些青年。青年们滑下坡，,周燕没有提醒这些青年这种行为：,47,badPhappyE,materials/situations/47.PNG,materials/happyreason/47.PNG,materials/badpropose/47.PNG,materials/happyending/47.PNG,0,68,68,68,,,,,,,,,,,,,3039.0860592999998,0.007643800001460477,[0.06041666666666667],[-0.04791666666666667],[1],[0],[0],[6.972381100000348],3046.062048399999,0.007256200000483659,[0.009027777777777777],[-0.06527777777777778],[1],[0],[0],[4.106800600000497],3050.1798278999995,0.007542300001659896,[],[],[],[],[],[],3052.480114099999,3055.486318699999,3057.780090099999,3057.780090099999,3057.780090099999,3057.780090099999,3.0677083333333335,2.7341730000007374,3060.5187376999984,3064.519004399999,3064.519004399999,3064.519004399999,3064.519004399999,3064.519004399999,None,3064.519004399999,3064.519004399999,3064.519004399999,3064.519004399999,None,,,,,,,,,102,1,-1,2023-02-20_11h57.28.576,Moral_Emotion_Task,2022.2.4,None,
史琴,史琴给朋友系上安全带。她的朋友,史琴给朋友系上安全带这种行为是：,18,badPhappyE,materials/situations/18.PNG,materials/happyreason/18.PNG,materials/badpropose/18.PNG,materials/happyending/18.PNG,0,69,69,69,,,,,,,,,,,,,3064.519004399999,0.007012899999608635,[-0.06458333333333334],[-0.16458333333333333],[1],[0],[0],[2.146722800000134],3066.668800199999,0.00671640000109619,[-0.20902777777777778],[-0.18472222222222223],[1],[0],[0],[2.3515094999984285],3069.0277226,0.006548800000018673,[],[],[],[],[],[],3071.3335467999987,3074.3294941999993,3076.6276651999997,3076.6276651999997,3076.6276651999997,3076.6276651999997,3.229166666666667,4.167864099999861,3080.8034457999984,3084.8127693999995,3084.8127693999995,3084.8127693999995,3084.8127693999995,3084.8127693999995,None,3084.8127693999995,3084.8127693999995,3084.8127693999995,3084.8127693999995,None,,,3074.3294941999993,,,3076.6276651999997,,,102,1,-1,2023-02-20_11h57.28.576,Moral_Emotion_Task,2022.2.4,None,
孙丽,孙丽没有提醒老人。老人走过去，,孙丽没有提醒老人这种行为：,46,goodPsadE,materials/situations/46.PNG,materials/sadreason/46.PNG,materials/goodpropose/46.PNG,materials/sadending/46.PNG,0,70,70,70,,,,,,,,,,,,,3084.8127693999995,0.007102000001395936,[0.1763888888888889],[-0.04791666666666667],[1],[0],[0],[2.7469875999995566],3087.5602811999997,0.006400000000212458,[0.36041666666666666],[-0.011805555555555555],[1],[0],[0],[5.4494627000003675],3093.019962299999,0.007062700000460609,[],[],[],[],[],[],3095.323016099999,3098.323862899999,3100.6317623999985,3100.6317623999985,3100.6317623999985,3100.6317623999985,2.567708333333333,3.492469599999822,3104.121138499999,3110.1210692999994,3110.1210692999994,3110.1210692999994,3110.1210692999994,3110.1210692999994,None,3110.1210692999994,3110.1210692999994,3110.1210692999994,3110.1210692999994,None,,,,,,,,,102,1,-1,2023-02-20_11h57.28.576,Moral_Emotion_Task,2022.2.4,None,
林蕾,林蕾把粉末放进朋友咖啡里。林蕾的朋友喝完咖啡后,林蕾把粉末放进朋友咖啡里这种行为：,1,goodPhappyE,materials/situations/1.PNG,materials/happyreason/1.PNG,materials/goodpropose/1.PNG,materials/happyending/1.PNG,0,71,71,71,,,,,,,,,,,,,3110.1210692999994,0.008417600000029779,[0.12013888888888889],[0.027777777777777776],[1],[0],[0],[2.7985279000004084],3112.9316356,0.009061999999175896,[-0.04513888888888889],[-0.1284722222222222],[1],[0],[0],[2.2831308000004356],3115.2193732999986,0.006910300000527059,[],[],[],[],[],[],3117.5184439999994,3120.5206676999987,3122.8208179999983,3122.8208179999983,3122.8208179999983,3122.8208179999983,2.5104166666666665,5.194959899999958,3128.016349899999,3132.0154613999985,3132.0154613999985,3132.0154613999985,3132.0154613999985,3132.0154613999985,None,3132.0154613999985,3132.0154613999985,3132.0154613999985,3132.0154613999985,None,3117.5184439999994,2.298950300000797,3120.5206676999987,,,3122.8208179999983,,,102,1,-1,2023-02-20_11h57.28.576,Moral_Emotion_Task,2022.2.4,None,
陈强,陈强挥手让堂兄去捡球。堂兄跑去捡球，,陈强挥手让堂兄去捡球这种行为：,37,badPhappyE,materials/situations/37.PNG,materials/happyreason/37.PNG,materials/badpropose/37.PNG,materials/happyending/37.PNG,0,72,72,72,,,,,,,,,,,,,3132.0154613999985,0.007857399999920744,[0.025694444444444443],[-0.05277777777777778],[1],[0],[0],[3.9794218000006367],3136.0008928999996,0.007211600001028273,[0.40208333333333335],[0.018055555555555554],[1],[0],[0],[2.035981900000479],3138.0457116999987,0.007421700000122655,[],[],[],[],[],[],3140.348478599999,3143.3453716999993,3145.651220599999,3145.651220599999,3145.651220599999,3145.651220599999,3.0625,1.6578165999999328,3147.312511099999,3150.3120679999993,3150.3120679999993,3150.3120679999993,3150.3120679999993,3150.3120679999993,None,3150.3120679999993,3150.3120679999993,3150.3120679999993,3150.3120679999993,None,3140.348478599999,2.2985626999998203,3143.3453716999993,,,3145.651220599999,,,102,1,-1,2023-02-20_11h57.28.576,Moral_Emotion_Task,2022.2.4,None,
唐巧,唐巧让男孩走进冒烟的房子。男孩,唐巧让男孩走进冒烟房子这种行为是：,24,badPhappyE,materials/situations/24.PNG,materials/happyreason/24.PNG,materials/badpropose/24.PNG,materials/happyending/24.PNG,0,73,73,73,,,,,,,,,,,,,3150.3120679999993,0.006588500000361819,[-0.20555555555555555],[-0.08055555555555556],[1],[0],[0],[2.88692489999994],3153.2090187999984,0.00808829999914451,[-0.20555555555555555],[-0.07291666666666667],[1],[0],[0],[2.7837158999991516],3156.006255299999,0.013912799999161507,[],[],[],[],[],[],3158.3028793999983,3161.3134009999994,3163.6098581999995,3163.6098581999995,3163.6098581999995,3163.6098581999995,2.0,2.8027548999998544,3166.4097071999986,3169.4174055999993,3169.4174055999993,3169.4174055999993,3169.4174055999993,3169.4174055999993,None,3169.4174055999993,3169.4174055999993,3169.4174055999993,3169.4174055999993,None,,,,,,,,,102,1,-1,2023-02-20_11h57.28.576,Moral_Emotion_Task,2022.2.4,None,
罗格,罗格没有管他的朋友。他的朋友,罗格没有管他的朋友这种行为是：,15,badPsadE,materials/situations/15.PNG,materials/sadreason/15.PNG,materials/badpropose/15.PNG,materials/sadending/15.PNG,0,74,74,74,,,,,,,,,,,,,3169.4174055999993,0.006989599998632912,[-0.30972222222222223],[-0.22430555555555556],[1],[0],[0],[1.7814185000006546],3171.2058807999983,0.007043800000246847,[-0.30069444444444443],[-0.25],[1],[0],[0],[1.8510466999996424],3173.0607094999996,0.0062164999999367865,[],[],[],[],[],[],3175.3533113999983,3178.353754399999,3180.660017799999,3180.660017799999,3180.660017799999,3180.660017799999,1,2.799862800000483,3183.465232999999,3187.4647074999993,3187.4647074999993,,3187.4647074999993,,space,3218.753918299999,,3218.753918299999,,s,3175.3533113999983,2.295351600001595,3178.353754399999,,,3180.660017799999,31.27127930000097,17.64662910000152,102,1,-1,2023-02-20_11h57.28.576,Moral_Emotion_Task,2022.2.4,None,
郑宇,郑宇没有阻止朋友开枪。子弹射中了,郑宇没有阻止朋友开枪这种行为：,26,badPsadE,materials/situations/26.PNG,materials/sadreason/26.PNG,materials/badpropose/26.PNG,materials/sadending/26.PNG,0,75,75,75,,,,,,,,,,,,,3236.419943699999,0.00724390000141284,[-0.3368055555555556],[-0.1673611111111111],[1],[0],[0],[3.636507700000948],3240.0629363999997,0.007560600000942941,[-0.3368055555555556],[-0.1673611111111111],[1],[0],[0],[4.160751900000832],3244.2297831999986,0.006316099999821745,[],[],[],[],[],[],3246.5228254999984,3249.5206392,3251.8210660999994,3251.8210660999994,3251.8210660999994,3251.8210660999994,2.010416666666667,4.225154900001144,3256.0450375,3262.048089099999,3262.048089099999,3262.048089099999,3262.048089099999,3262.048089099999,None,3262.048089099999,3262.048089099999,3262.048089099999,3262.048089099999,None,3246.5228254999984,2.297043399999893,3249.5206392,,,3251.8210660999994,,,102,1,-1,2023-02-20_11h57.28.576,Moral_Emotion_Task,2022.2.4,None,
张克,张克邀请朋友吃饼干。他的朋友,张克邀请他的朋友吃饼干这种行为是：,22,goodPsadE,materials/situations/22.PNG,materials/sadreason/22.PNG,materials/goodpropose/22.PNG,materials/sadending/22.PNG,0,76,76,76,,,,,,,,,,,,,3262.048089099999,0.008234300001277006,[-0.12569444444444444],[-0.14722222222222223],[1],[0],[0],[3.8469015000009676],3265.901592799999,0.0071356000007654075,[-0.3736111111111111],[-0.12708333333333333],[1],[0],[0],[1.8682579000014812],3267.7816319999984,0.008110400000077789,[],[],[],[],[],[],3270.077468899999,3273.0747573999997,3275.381785899999,3275.381785899999,3275.381785899999,3275.381785899999,2.875,2.0603105000009236,3277.442004499999,3282.4434836,3282.4434836,3282.4434836,3282.4434836,3282.4434836,None,3282.4434836,3282.4434836,3282.4434836,3282.4434836,None,3270.077468899999,2.298796900000525,3273.0747573999997,,,,,,102,1,-1,2023-02-20_11h57.28.576,Moral_Emotion_Task,2022.2.4,None,
蒋文,蒋文没有管他妹妹。他的妹妹自己开车,蒋文没有管他妹妹这种行为：,32,goodPsadE,materials/situations/32.PNG,materials/sadreason/32.PNG,materials/goodpropose/32.PNG,materials/sadending/32.PNG,0,77,77,77,,,,,,,,,,,,,3282.4434836,0.008660499999677995,[-0.20694444444444443],[-0.16041666666666668],[1],[0],[0],[2.30931849999979],3284.7645832,0.006433200000174111,[-0.2326388888888889],[-0.15138888888888888],[1],[0],[0],[3.0170631000000867],3287.7854706,0.007647500000530272,[],[],[],[],[],[],3290.0773225999983,3293.0759449999987,3295.371384099999,3295.371384099999,3295.371384099999,3295.371384099999,1.8437500000000004,2.5233191000006627,3297.9001399999997,3301.903450599999,3301.903450599999,3301.903450599999,3301.903450599999,3301.903450599999,None,3301.903450599999,3301.903450599999,3301.903450599999,3301.903450599999,None,3290.0773225999983,2.2951649999995425,3293.0759449999987,,,3295.371384099999,,,102,1,-1,2023-02-20_11h57.28.576,Moral_Emotion_Task,2022.2.4,None,
孙丽,孙丽没有提醒老人。老人走过去，,孙丽没有提醒老人这种行为：,46,badPsadE,materials/situations/46.PNG,materials/sadreason/46.PNG,materials/badpropose/46.PNG,materials/sadending/46.PNG,0,78,78,78,,,,,,,,,,,,,3301.903450599999,0.0066377000002830755,[-0.2875],[-0.17777777777777778],[1],[0],[0],[1.7492660999996588],3303.6592722999994,0.0068179000008967705,[-0.2875],[-0.17777777777777778],[1],[0],[0],[1.173300599999493],3304.8427440999985,0.006258600000364822,[],[],[],[],[],[],3307.1468569999997,3310.1529683999997,3312.4417237,3312.4417237,3312.4417237,3312.4417237,1,7.514749100000699,3319.9633971999992,3322.976251599999,3322.976251599999,3322.976251599999,3322.976251599999,3322.976251599999,None,3322.976251599999,3322.976251599999,3322.976251599999,3322.976251599999,None,,,,,,,,,102,1,-1,2023-02-20_11h57.28.576,Moral_Emotion_Task,2022.2.4,None,
舒玲,舒玲把车借给同学。舒玲的同学,舒玲把自行车借给同学这种行为是：,12,goodPsadE,materials/situations/12.PNG,materials/sadreason/12.PNG,materials/goodpropose/12.PNG,materials/sadending/12.PNG,0,79,79,79,,,,,,,,,,,,,3322.976251599999,0.013865599999917322,[-0.475],[-0.1875],[1],[0],[0],[3.933293500000218],3326.915944999999,0.008330999999088817,[-0.3951388888888889],[-0.24027777777777778],[1],[0],[0],[1.5639015000015206],3328.4893220999984,0.006862800000817515,[],[],[],[],[],[],3330.7887897,3333.7891953,3336.096759599999,3336.096759599999,3336.096759599999,3336.096759599999,4.78125,7.446340600001349,3343.5384737999993,3346.5423861,3346.5423861,3346.5423861,3346.5423861,3346.5423861,None,3346.5423861,3346.5423861,3346.5423861,3346.5423861,None,,,3333.7891953,,,3336.096759599999,,,102,1,-1,2023-02-20_11h57.28.576,Moral_Emotion_Task,2022.2.4,None,
刘莎,刘莎把绳索卖给顾客。顾客使用这条绳索攀岩时,刘莎把绳索卖给顾客这种行为：,30,badPhappyE,materials/situations/30.PNG,materials/happyreason/30.PNG,materials/badpropose/30.PNG,materials/happyending/30.PNG,0,80,80,80,,,,,,,,,,,,,3346.5423861,0.013988099999551196,[-0.019444444444444445],[-0.07083333333333333],[1],[0],[0],[2.6694170999999187],3349.2253028999985,0.007636000000275089,[-0.07291666666666667],[-0.1326388888888889],[1],[0],[0],[2.521314399999028],3351.7561474999984,0.01291289999971923,[],[],[],[],[],[],3354.064202399999,3357.061988399999,3359.360318699999,3359.360318699999,3359.360318699999,3359.360318699999,5.427083333333333,1.5121451000013622,3360.8721682999985,3364.8718980999984,3364.8718980999984,3364.8718980999984,3364.8718980999984,3364.8718980999984,None,3364.8718980999984,3364.8718980999984,3364.8718980999984,3364.8718980999984,None,,,,,,,,,102,1,-1,2023-02-20_11h57.28.576,Moral_Emotion_Task,2022.2.4,None,
路明,路明让伙伴爬上树屋。他的朋友,路明让伙伴爬上树屋这种行为：,41,badPsadE,materials/situations/41.PNG,materials/sadreason/41.PNG,materials/badpropose/41.PNG,materials/sadending/41.PNG,0,81,81,81,,,,,,,,,,,,,3364.8718980999984,0.007487299999411334,[-0.015277777777777777],[-0.20833333333333334],[1],[0],[0],[2.540191500000219],3367.416517399999,0.007398400000965921,[0.13680555555555557],[-0.18125],[1],[0],[0],[1.8265589000002365],3369.2489207,0.0063775000016903505,[],[],[],[],[],[],3371.5430579999993,3374.5411503999985,3376.835358799999,3376.835358799999,3376.835358799999,3376.835358799999,1.2760416666666665,1.750489900001412,3378.5898079,3381.5918159999983,3381.5918159999983,3381.5918159999983,3381.5918159999983,3381.5918159999983,None,3381.5918159999983,3381.5918159999983,3381.5918159999983,3381.5918159999983,None,3371.5430579999993,2.2994680000010703,3374.5411503999985,,,3376.835358799999,,,102,1,-1,2023-02-20_11h57.28.576,Moral_Emotion_Task,2022.2.4,None,
徐雷,徐雷让女朋友过桥。徐雷的女朋友,徐雷让女朋友过桥这种行为是：,4,goodPhappyE,materials/situations/4.PNG,materials/happyreason/4.PNG,materials/goodpropose/4.PNG,materials/happyending/4.PNG,0,82,82,82,,,,,,,,,,,,,3381.5918159999983,0.013199299999541836,[-0.28958333333333336],[-0.08055555555555556],[1],[0],[0],[1.7547469000001001],3383.362433299999,0.013393699999141973,[-0.26319444444444445],[-0.08680555555555555],[1],[0],[0],[1.179998000001433],3384.5483907999987,0.006829200001448044,[-0.30625],[-0.19166666666666668],[1],[0],[0],[1.3675653999998758],3385.923046,3388.9247165999986,3391.2257937999984,3391.2257937999984,3391.2257937999984,3391.2257937999984,6.5625,3.6323757999998634,3394.861841099999,3400.8574056999987,3400.8574056999987,3400.8574056999987,3400.8574056999987,3400.8574056999987,None,3400.8574056999987,3400.8574056999987,3400.8574056999987,3400.8574056999987,None,,,3388.9247165999986,,,3391.2257937999984,,,102,1,-1,2023-02-20_11h57.28.576,Moral_Emotion_Task,2022.2.4,None,
史琴,史琴给朋友系上安全带。她的朋友,史琴给朋友系上安全带这种行为是：,18,badPsadE,materials/situations/18.PNG,materials/sadreason/18.PNG,materials/badpropose/18.PNG,materials/sadending/18.PNG,0,83,83,83,,,,,,,,,,,,,3400.8574056999987,0.0084391999989748,[0.33402777777777776],[-0.2076388888888889],[1],[0],[0],[1.9179688999993232],3402.7903516999995,0.00812450000012177,[0.3173611111111111],[-0.2076388888888889],[1],[0],[0],[1.6735220999999],3404.4725143999985,0.007221100000606384,[],[],[],[],[],[],3406.7675581999993,3409.767814699999,3412.0640335999997,3412.0640335999997,3412.0640335999997,3412.0640335999997,1,1.3950920999996015,3413.4690760999983,3418.4725966999995,3418.4725966999995,3418.4725966999995,3418.4725966999995,3418.4725966999995,None,3418.4725966999995,3418.4725966999995,3418.4725966999995,3418.4725966999995,None,,,3409.767814699999,,,3412.0640335999997,,,102,1,-1,2023-02-20_11h57.28.576,Moral_Emotion_Task,2022.2.4,None,
韩珍,韩珍悄悄走开。小孩,韩珍悄悄走开这种行为是：,5,badPhappyE,materials/situations/5.PNG,materials/happyreason/5.PNG,materials/badpropose/5.PNG,materials/happyending/5.PNG,0,84,84,84,,,,,,,,,,,,,3418.4725966999995,0.006291300000157207,[0.003472222222222222],[0.011805555555555555],[1],[0],[0],[1.1919146999989607],3419.6663015999984,0.007346299998971517,[0.011805555555555555],[0.02013888888888889],[1],[0],[0],[2.863867800000662],3422.536211999999,0.006646199999522651,[],[],[],[],[],[],3424.834287599999,3427.834669099999,3430.1349624999984,3430.1349624999984,3430.1349624999984,3430.1349624999984,2.911458333333333,3.101931399998648,3433.2377471,3438.2410196,3438.2410196,3438.2410196,3438.2410196,3438.2410196,None,3438.2410196,3438.2410196,3438.2410196,3438.2410196,None,3424.834287599999,2.2973234000000957,3427.834669099999,,,3430.1349624999984,,,102,1,-1,2023-02-20_11h57.28.576,Moral_Emotion_Task,2022.2.4,None,
林蕾,林蕾把粉末放进朋友咖啡里。林蕾的朋友喝完咖啡后,林蕾把粉末放进朋友咖啡里这种行为：,1,badPhappyE,materials/situations/1.PNG,materials/happyreason/1.PNG,materials/badpropose/1.PNG,materials/happyending/1.PNG,0,85,85,85,,,,,,,,,,,,,3438.2410196,0.008165599998392281,[-0.030555555555555555],[0.06111111111111111],[1],[0],[0],[1.6656887999997707],3439.9128293999984,0.008486600001560873,[-0.05625],[-0.024305555555555556],[1],[0],[0],[1.6571856999999],3441.5784520999987,0.008096399998976267,[],[],[],[],[],[],3443.883791799999,3446.8808952,3449.1861476999984,3449.1861476999984,3449.1861476999984,3449.1861476999984,1.8958333333333335,1.2106819999989966,3450.4036622999993,3455.4043914999984,3455.4043914999984,3455.4043914999984,3455.4043914999984,3455.4043914999984,None,3455.4043914999984,3455.4043914999984,3455.4043914999984,3455.4043914999984,None,,,,,,,,,102,1,-1,2023-02-20_11h57.28.576,Moral_Emotion_Task,2022.2.4,None,
舒玲,舒玲把车借给同学。舒玲的同学,舒玲把自行车借给同学这种行为是：,12,goodPhappyE,materials/situations/12.PNG,materials/happyreason/12.PNG,materials/goodpropose/12.PNG,materials/happyending/12.PNG,0,86,86,86,,,,,,,,,,,,,3455.4043914999984,0.006553699999130913,[-0.025694444444444443],[0.017361111111111112],[1],[0],[0],[2.1433428000000276],3457.5531274999994,0.006339400000797468,[-0.025694444444444443],[0.017361111111111112],[1],[0],[0],[1.3666429000004428],3458.9247949,0.006573499998921761,[],[],[],[],[],[],3461.2211164,3464.2222809999985,3466.5236183999987,3466.5236183999987,3466.5236183999987,3466.5236183999987,6.203125,2.3442611999998917,3468.872819799999,3474.8749644,3474.8749644,3474.8749644,3474.8749644,3474.8749644,None,3474.8749644,3474.8749644,3474.8749644,3474.8749644,None,3461.2211164,2.296917099998609,3464.2222809999985,,,3466.5236183999987,,,102,1,-1,2023-02-20_11h57.28.576,Moral_Emotion_Task,2022.2.4,None,
马超,马超继续读着报纸。孩子,马超继续读着报纸这种行为：,44,badPhappyE,materials/situations/44.PNG,materials/happyreason/44.PNG,materials/badpropose/44.PNG,materials/happyending/44.PNG,0,87,87,87,,,,,,,,,,,,,3474.8749644,0.007959099999425234,[-0.016666666666666666],[0.02638888888888889],[1],[0],[0],[2.39500340000086],3477.281010999999,0.012630700000954675,[-0.016666666666666666],[0.02638888888888889],[1],[0],[0],[4.7909877999991295],3482.0896808999987,0.01219419999870297,[],[],[],[],[],[],3484.385879899999,3487.3884562999992,3489.6974059999993,3489.6974059999993,3489.6974059999993,3489.6974059999993,1.0208333333333333,3.705646999998862,3493.415477999999,3499.4254015999995,3499.4254015999995,3499.4254015999995,3499.4254015999995,3499.4254015999995,None,3499.4254015999995,3499.4254015999995,3499.4254015999995,3499.4254015999995,None,,,,,,,,,102,1,-1,2023-02-20_11h57.28.576,Moral_Emotion_Task,2022.2.4,None,
刘莎,刘莎把绳索卖给顾客。顾客使用这条绳索攀岩时,刘莎把绳索卖给顾客这种行为：,30,goodPsadE,materials/situations/30.PNG,materials/sadreason/30.PNG,materials/goodpropose/30.PNG,materials/sadending/30.PNG,0,88,88,88,,,,,,,,,,,,,3499.4254015999995,0.00945040000078734,[0.05625],[-0.16597222222222222],[1],[0],[0],[1.8035630999984278],3501.2374615999997,0.011705999999321648,[0.05625],[-0.16597222222222222],[1],[0],[0],[2.534395000000586],3503.788600599999,0.013300700000399956,[],[],[],[],[],[],3506.0926937999993,3509.1016876999984,3511.3910405999995,3511.3910405999995,3511.3910405999995,3511.3910405999995,4.572916666666667,3.557895300000382,3514.9563705,3518.9581036,3518.9581036,3518.9581036,3518.9581036,3518.9581036,None,3518.9581036,3518.9581036,3518.9581036,3518.9581036,None,,,,,,,,,102,1,-1,2023-02-20_11h57.28.576,Moral_Emotion_Task,2022.2.4,None,
唐巧,唐巧让男孩走进冒烟的房子。男孩,唐巧让男孩走进冒烟房子这种行为是：,24,goodPhappyE,materials/situations/24.PNG,materials/happyreason/24.PNG,materials/goodpropose/24.PNG,materials/happyending/24.PNG,0,89,89,89,,,,,,,,,,,,,3518.9581036,0.008115200000247569,[0.06736111111111111],[-0.21944444444444444],[1],[0],[0],[2.2968068000009225],3521.263251299999,0.008110499999020249,[-0.04027777777777778],[0.01875],[1],[0],[0],[2.5669738999986293],3523.8415019999993,0.007494199999200646,[],[],[],[],[],[],3526.134928199999,3529.136888199999,3531.437749499999,3531.437749499999,3531.437749499999,3531.437749499999,6.53125,3.8357165999987046,3535.2746001999985,3541.2713894999997,3541.2713894999997,3541.2713894999997,3541.2713894999997,3541.2713894999997,None,3541.2713894999997,3541.2713894999997,3541.2713894999997,3541.2713894999997,None,3526.134928199999,2.2995038999997632,3529.136888199999,,,3531.437749499999,,,102,1,-1,2023-02-20_11h57.28.576,Moral_Emotion_Task,2022.2.4,None,
乔南,乔南点燃熏香。毒气充斥着整座房屋，把害虫都杀光了。邻居的妈妈,乔南点燃熏香这种行为：,35,badPhappyE,materials/situations/35.PNG,materials/happyreason/35.PNG,materials/badpropose/35.PNG,materials/happyending/35.PNG,0,90,90,90,,,,,,,,,,,,,3541.2713894999997,0.007815599999958067,[-0.05138888888888889],[0.008333333333333333],[1],[0],[0],[2.3230418999992253],3543.6034322999985,0.008687999999892781,[-0.034722222222222224],[0.018055555555555554],[1],[0],[0],[2.0760434000003443],3545.6905425999994,0.006792099999074708,[-0.034722222222222224],[0.018055555555555554],[1],[0],[0],[2.1033906000011484],3547.7938102999997,3550.8043678999984,3553.1043569999983,3553.1043569999983,3553.1043569999983,3553.1043569999983,3.036458333333333,3.7777556000000914,3556.8819329,3560.8795530999996,3560.8795530999996,3560.8795530999996,3560.8795530999996,3560.8795530999996,None,3560.8795530999996,3560.8795530999996,3560.8795530999996,3560.8795530999996,None,,,3550.8043678999984,,,,,,102,1,-1,2023-02-20_11h57.28.576,Moral_Emotion_Task,2022.2.4,None,
李贝,李贝把这些肉给孩子们吃。孩子们,李贝把这些肉给孩子们吃这种行为是：,14,badPsadE,materials/situations/14.PNG,materials/sadreason/14.PNG,materials/badpropose/14.PNG,materials/sadending/14.PNG,0,91,91,91,,,,,,,,,,,,,3560.8795530999996,0.007421700000122655,[-0.1284722222222222],[-0.24583333333333332],[1],[0],[0],[2.164909399998578],3563.0497785999996,0.006826400000136346,[-0.1284722222222222],[-0.24583333333333332],[1],[0],[0],[1.6244894999999815],3564.6857458999984,0.0066609000004973495,[],[],[],[],[],[],3566.980339399999,3569.9798261999986,3572.2808778,3572.2808778,3572.2808778,3572.2808778,1.0416666666666665,1.5000820999994176,3573.7885644999988,3578.7948203999986,3578.7948203999986,3578.7948203999986,3578.7948203999986,3578.7948203999986,None,3578.7948203999986,3578.7948203999986,3578.7948203999986,3578.7948203999986,None,,,3569.9798261999986,,,3572.2808778,,,102,1,-1,2023-02-20_11h57.28.576,Moral_Emotion_Task,2022.2.4,None,
左艳,左艳让孩子坐上缆车。孩子,左艳让孩子坐上缆车这种行为是：,23,badPsadE,materials/situations/23.PNG,materials/sadreason/23.PNG,materials/badpropose/23.PNG,materials/sadending/23.PNG,0,92,92,92,,,,,,,,,,,,,3578.7948203999986,0.006466700000601122,[-0.39444444444444443],[-0.2298611111111111],[1],[0],[0],[2.666226800000004],3581.4691625999985,0.007669000000532833,[-0.39444444444444443],[-0.2298611111111111],[1],[0],[0],[2.044179800001075],3583.5183051999993,0.007884399999966263,[],[],[],[],[],[],3585.816275699999,3588.8237997999986,3591.1306735999988,3591.1306735999988,3591.1306735999988,3591.1306735999988,1.1458333333333335,2.68434889999844,3593.8260297999987,3597.822482899999,3597.822482899999,3597.822482899999,3597.822482899999,3597.822482899999,None,3597.822482899999,3597.822482899999,3597.822482899999,3597.822482899999,None,,,,,,,,,102,1,-1,2023-02-20_11h57.28.576,Moral_Emotion_Task,2022.2.4,None,
周燕,周燕没有提醒这些青年。青年们滑下坡，,周燕没有提醒这些青年这种行为：,47,goodPsadE,materials/situations/47.PNG,materials/sadreason/47.PNG,materials/goodpropose/47.PNG,materials/sadending/47.PNG,0,93,93,93,,,,,,,,,,,,,3597.822482899999,0.008157100000971695,[-0.38055555555555554],[-0.1840277777777778],[1],[0],[0],[1.8933001999994303],3599.7254759999996,0.009496799999396899,[-0.39861111111111114],[-0.20208333333333334],[1],[0],[0],[1.736688500001037],3601.4764029,0.00680350000038743,[],[],[],[],[],[],3603.7776827999987,3606.7798628,3609.0738475999988,3609.0738475999988,3609.0738475999988,3609.0738475999988,2.375,1.6079890000000887,3610.6917759999997,3613.6978308999987,3613.6978308999987,3613.6978308999987,3613.6978308999987,3613.6978308999987,None,3613.6978308999987,3613.6978308999987,3613.6978308999987,3613.6978308999987,None,,,,,,,,,102,1,-1,2023-02-20_11h57.28.576,Moral_Emotion_Task,2022.2.4,None,
严浩,严浩没有让乘客系好安全带。飞船开动后，这名乘客,严浩没有让乘客系好安全带这种行为：,45,goodPhappyE,materials/situations/45.PNG,materials/happyreason/45.PNG,materials/goodpropose/45.PNG,materials/happyending/45.PNG,0,94,94,94,,,,,,,,,,,,,3613.6978308999987,0.01439329999993788,[-0.03611111111111111],[-0.16458333333333333],[1],[0],[0],[3.35270379999929],3617.054683299999,0.006904899999426561,[0.11458333333333333],[-0.2],[1],[0],[0],[3.311471700000766],3620.3738608999993,0.006674300000668154,[],[],[],[],[],[],3622.6699818999987,3625.6768302,3627.9763024999993,3627.9763024999993,3627.9763024999993,3627.9763024999993,5.291666666666667,0.18568040000172914,3628.1606684,3634.1642429999993,3634.1642429999993,3634.1642429999993,3634.1642429999993,3634.1642429999993,None,3634.1642429999993,3634.1642429999993,3634.1642429999993,3634.1642429999993,None,3622.6699818999987,2.29584960000102,3625.6768302,,,3627.9763024999993,,,102,1,-1,2023-02-20_11h57.28.576,Moral_Emotion_Task,2022.2.4,None,
杨乐,"杨乐跳过这一段铁轨的工作。这段铁轨开始运营,",杨乐跳过这一段铁轨工作这种行为是：,17,badPhappyE,materials/situations/17.PNG,materials/happyreason/17.PNG,materials/badpropose/17.PNG,materials/happyending/17.PNG,0,95,95,95,,,,,,,,,,,,,3634.1642429999993,0.008691900000485475,[-0.21180555555555555],[-0.13055555555555556],[1],[0],[0],[3.6506207999991602],3637.8222466999996,0.008434999999735737,[0.15902777777777777],[-0.16111111111111112],[1],[0],[0],[2.604783299999326],3640.432835399999,0.006484699999418808,[],[],[],[],[],[],3642.7338981999983,3645.7431979999983,3648.0446303999997,3648.0446303999997,3648.0446303999997,3648.0446303999997,2.380208333333333,1.6268509999990783,3649.6764439,3653.6721166999996,3653.6721166999996,3653.6721166999996,3653.6721166999996,3653.6721166999996,None,3653.6721166999996,3653.6721166999996,3653.6721166999996,3653.6721166999996,None,,,3645.7431979999983,,,,,,102,1,-1,2023-02-20_11h57.28.576,Moral_Emotion_Task,2022.2.4,None,
王丽,王丽戴橡胶手套检查病人。病人,王丽戴橡胶手套检查病人这种行为是：,7,badPhappyE,materials/situations/7.PNG,materials/happyreason/7.PNG,materials/badpropose/7.PNG,materials/happyending/7.PNG,0,96,96,96,,,,,,,,,,,,,3653.6721166999996,0.00644540000030247,[-0.26805555555555555],[-0.22291666666666668],[1],[0],[0],[2.1962825000009616],3655.8793871,0.012388999999529915,[-0.26805555555555555],[-0.22291666666666668],[1],[0],[0],[1.4441634999984672],3657.3384036999996,0.011893700000655372,[-0.2763888888888889],[-0.23125],[1],[0],[0],[2.1850566000011895],3659.5254650999996,3662.5273392,3664.8219221,3664.8219221,3664.8219221,3664.8219221,1.4843750000000004,1.3210490999990725,3666.1499386999985,3672.1478914,3672.1478914,3672.1478914,3672.1478914,3672.1478914,None,3672.1478914,3672.1478914,3672.1478914,3672.1478914,None,,,3662.5273392,,,3664.8219221,,,102,1,-1,2023-02-20_11h57.28.576,Moral_Emotion_Task,2022.2.4,None,
陈杰,陈杰离开家去见朋友。警报一直在响，房屋,陈杰离开家去见朋友这种行为：,29,goodPsadE,materials/situations/29.PNG,materials/sadreason/29.PNG,materials/goodpropose/29.PNG,materials/sadending/29.PNG,0,97,97,97,,,,,,,,,,,,,3672.1478914,0.007409400001051836,[0.0006944444444444445],[-0.14444444444444443],[1],[0],[0],[2.344541599999502],3674.5021229999984,0.007108199999493081,[0.009722222222222222],[-0.1701388888888889],[1],[0],[0],[3.2067566999994597],3677.7204226999984,0.013377899998886278,[],[],[],[],[],[],3680.0229192999996,3683.0228572999986,3685.3214252999987,3685.3214252999987,3685.3214252999987,3685.3214252999987,1,1.5400055999998585,3686.8715267999996,3690.8821783999992,3690.8821783999992,3690.8821783999992,3690.8821783999992,3690.8821783999992,None,3690.8821783999992,3690.8821783999992,3690.8821783999992,3690.8821783999992,None,,,,,,,,,102,1,-1,2023-02-20_11h57.28.576,Moral_Emotion_Task,2022.2.4,None,
何伟,何伟让客人进入实验室。客人,何伟让客人进入实验室这种行为：,2,badPsadE,materials/situations/2.PNG,materials/sadreason/2.PNG,materials/badpropose/2.PNG,materials/sadending/2.PNG,0,98,98,98,,,,,,,,,,,,,3690.8821783999992,0.006802599998991354,[-0.4097222222222222],[-0.20833333333333334],[1],[0],[0],[2.4940129999995406],3693.379585999999,0.00680100000136008,[-0.4097222222222222],[-0.20833333333333334],[1],[0],[0],[2.349237500000527],3695.745304,0.01240239999970072,[],[],[],[],[],[],3698.050233599999,3701.044398099999,3703.3434199999992,3703.3434199999992,3703.3434199999992,3703.3434199999992,1.0,1.0331679999999324,3704.387418099999,3708.3968298,3708.3968298,3708.3968298,3708.3968298,3708.3968298,None,3708.3968298,3708.3968298,3708.3968298,3708.3968298,None,,,,,,,,,102,1,-1,2023-02-20_11h57.28.576,Moral_Emotion_Task,2022.2.4,None,
左艳,左艳让孩子坐上缆车。孩子,左艳让孩子坐上缆车这种行为是：,23,goodPsadE,materials/situations/23.PNG,materials/sadreason/23.PNG,materials/goodpropose/23.PNG,materials/sadending/23.PNG,0,99,99,99,,,,,,,,,,,,,3708.3968298,0.007105300001057913,[-0.4236111111111111],[-0.20972222222222223],[1],[0],[0],[1.9770476000012422],3710.3784307999995,0.006375699998898199,[-0.43194444444444446],[-0.20972222222222223],[1],[0],[0],[1.723077699998612],3712.1070456999987,0.007608400001117843,[],[],[],[],[],[],3714.4007266999997,3717.4014379,3719.7051807999997,3719.7051807999997,3719.7051807999997,3719.7051807999997,4.776041666666667,3.417110499998671,3723.1291684999997,3728.126439599999,3728.126439599999,,3728.126439599999,,space,3762.314747299999,,3762.314747299999,,s,3714.4007266999997,2.29855839999982,3717.4014379,,,3719.7051807999997,34.170198800002254,17.94330770000124,102,1,-1,2023-02-20_11h57.28.576,Moral_Emotion_Task,2022.2.4,None,
胡梅,胡梅把新降落伞给顾客。顾客使用这把降落伞时,胡梅把新降落伞给顾客这种行为：,38,badPhappyE,materials/situations/38.PNG,materials/happyreason/38.PNG,materials/badpropose/38.PNG,materials/happyending/38.PNG,0,100,100,100,,,,,,,,,,,,,3780.2760817,0.010638199999448261,[-0.005555555555555556],[-0.06111111111111111],[1],[0],[0],[4.502862200000891],3784.7952572999984,0.01233440000032715,[-0.005555555555555556],[-0.06111111111111111],[1],[0],[0],[1.7670825999994122],3786.5716514999986,0.01318630000059784,[],[],[],[],[],[],3788.8709294,3791.8707013999992,3794.1819239999986,3794.1819239999986,3794.1819239999986,3794.1819239999986,2.0208333333333335,3.0719750999996904,3797.247199899999,3800.245655999999,3800.245655999999,3800.245655999999,3800.245655999999,3800.245655999999,None,3800.245655999999,3800.245655999999,3800.245655999999,3800.245655999999,None,,,,,,,,,102,1,-1,2023-02-20_11h57.28.576,Moral_Emotion_Task,2022.2.4,None,
许乐,许乐让男朋友去碎浪那边游泳。她的男朋友,许乐让男朋友去碎浪那边游泳这种行为：,42,badPhappyE,materials/situations/42.PNG,materials/happyreason/42.PNG,materials/badpropose/42.PNG,materials/happyending/42.PNG,0,101,101,101,,,,,,,,,,,,,3800.245655999999,0.006816799999796785,[-0.2972222222222222],[-0.22291666666666668],[1],[0],[0],[2.088734299999487],3802.3395416999992,0.0061434999988705385,[-0.3055555555555556],[-0.2152777777777778],[1],[0],[0],[1.6625470999988465],3804.0083304,0.006366600000546896,[],[],[],[],[],[],3806.2992744999992,3809.2986364999997,3811.594550599999,3811.594550599999,3811.594550599999,3811.594550599999,1.09375,2.497788500000752,3814.102192799999,3818.1001799999995,3818.1001799999995,3818.1001799999995,3818.1001799999995,3818.1001799999995,None,3818.1001799999995,3818.1001799999995,3818.1001799999995,3818.1001799999995,None,3806.2992744999992,2.293631099999402,3809.2986364999997,,,3811.594550599999,,,102,1,-1,2023-02-20_11h57.28.576,Moral_Emotion_Task,2022.2.4,None,
马慧,马慧没有阻止堂兄走进厨房。她的堂兄,马慧没有阻止堂兄进厨房这种行为是：,21,goodPhappyE,materials/situations/21.PNG,materials/happyreason/21.PNG,materials/goodpropose/21.PNG,materials/happyending/21.PNG,0,102,102,102,,,,,,,,,,,,,3818.1001799999995,0.008251600000221515,[-0.08472222222222223],[-0.10555555555555556],[1],[0],[0],[2.81322370000089],3820.9209893999996,0.006494399998700828,[-0.08472222222222223],[-0.10555555555555556],[1],[0],[0],[2.3205551999999443],3823.2520914999986,0.009944299999915529,[-0.08472222222222223],[-0.10555555555555556],[1],[0],[0],[1.471276599999328],3824.726235,3827.7228024999986,3830.0284962999995,3830.0284962999995,3830.0284962999995,3830.0284962999995,5.671875,1.6293629000010696,3831.6670440999987,3837.6719706999993,3837.6719706999993,3837.6719706999993,3837.6719706999993,3837.6719706999993,None,3837.6719706999993,3837.6719706999993,3837.6719706999993,3837.6719706999993,None,,,3827.7228024999986,,,3830.0284962999995,,,102,1,-1,2023-02-20_11h57.28.576,Moral_Emotion_Task,2022.2.4,None,
蒋文,蒋文没有管他妹妹。他的妹妹自己开车,蒋文没有管他妹妹这种行为：,32,badPsadE,materials/situations/32.PNG,materials/sadreason/32.PNG,materials/badpropose/32.PNG,materials/sadending/32.PNG,0,103,103,103,,,,,,,,,,,,,3837.6719706999993,0.007925699999759672,[0.00625],[-0.07083333333333333],[1],[0],[0],[3.029136600000129],3840.7070374999985,0.006572600001163664,[0.00625],[-0.07083333333333333],[1],[0],[0],[1.3225762999991275],3842.0360173999998,0.006342599999697995,[],[],[],[],[],[],3844.329311399999,3847.3297721,3849.6311815999998,3849.6311815999998,3849.6311815999998,3849.6311815999998,1,2.625042300000132,3852.2572469999996,3858.2620910999995,3858.2620910999995,3858.2620910999995,3858.2620910999995,3858.2620910999995,None,3858.2620910999995,3858.2620910999995,3858.2620910999995,3858.2620910999995,None,3844.329311399999,2.2937523999989935,3847.3297721,,,3849.6311815999998,,,102,1,-1,2023-02-20_11h57.28.576,Moral_Emotion_Task,2022.2.4,None,
徐雷,徐雷让女朋友过桥。徐雷的女朋友,徐雷让女朋友过桥这种行为是：,4,badPsadE,materials/situations/4.PNG,materials/sadreason/4.PNG,materials/badpropose/4.PNG,materials/sadending/4.PNG,0,104,104,104,,,,,,,,,,,,,3858.2620910999995,0.00775679999969725,[-0.13402777777777777],[0.10069444444444445],[1],[0],[0],[1.9403559000002133],3860.2160193,0.012773099999321857,[-0.13402777777777777],[0.10069444444444445],[1],[0],[0],[1.0188164000010147],3861.238443799999,0.006978399998843088,[-0.13402777777777777],[0.10069444444444445],[1],[0],[0],[1.1898849999997765],3862.4316206999993,3865.4299858999984,3867.7261031999988,3867.7261031999988,3867.7261031999988,3867.7261031999988,1,2.291716699999597,3870.0209988999995,3874.0322736,3874.0322736,3874.0322736,3874.0322736,3874.0322736,None,3874.0322736,3874.0322736,3874.0322736,3874.0322736,None,,,3865.4299858999984,,,3867.7261031999988,,,102,1,-1,2023-02-20_11h57.28.576,Moral_Emotion_Task,2022.2.4,None,
叶蓉,叶蓉把小狗卖给女顾客。小狗,叶蓉把小狗卖给女顾客这种行为：,39,badPsadE,materials/situations/39.PNG,materials/sadreason/39.PNG,materials/badpropose/39.PNG,materials/sadending/39.PNG,0,105,105,105,,,,,,,,,,,,,3874.0322736,0.007817700001396588,[-0.41180555555555554],[-0.019444444444444445],[1],[0],[0],[1.6052051999995456],3875.6450981999988,0.008079999999608845,[-0.41180555555555554],[-0.019444444444444445],[1],[0],[0],[1.1537182000010944],3876.8024467999985,0.006673500000033528,[],[],[],[],[],[],3879.1027922999983,3882.1047813999994,3884.4067590999985,3884.4067590999985,3884.4067590999985,3884.4067590999985,1.1458333333333335,2.1563791999997193,3886.5672122999986,3889.5793274999996,3889.5793274999996,3889.5793274999996,3889.5793274999996,3889.5793274999996,None,3889.5793274999996,3889.5793274999996,3889.5793274999996,3889.5793274999996,None,,,,,,,,,102,1,-1,2023-02-20_11h57.28.576,Moral_Emotion_Task,2022.2.4,None,
孙泽,孙泽买了一袋菠菜给奶奶。他奶奶在晚饭上吃下了这些菠菜后,孙泽买了一袋菠菜给奶奶这种行为：,27,badPhappyE,materials/situations/27.PNG,materials/happyreason/27.PNG,materials/badpropose/27.PNG,materials/happyending/27.PNG,0,106,106,106,,,,,,,,,,,,,3889.5793274999996,0.007364099999904283,[-0.41388888888888886],[-0.18888888888888888],[1],[0],[0],[3.361160499998732],3892.9429452999993,0.006692899998597568,[-0.41388888888888886],[-0.18888888888888888],[1],[0],[0],[2.083445499998561],3895.034324799999,0.006548599998495774,[],[],[],[],[],[],3897.3322960999994,3900.3431753999994,3902.642969999999,3902.642969999999,3902.642969999999,3902.642969999999,2.21875,3.6683093999999983,3906.3247173,3911.3325754999987,3911.3325754999987,3911.3325754999987,3911.3325754999987,3911.3325754999987,None,3911.3325754999987,3911.3325754999987,3911.3325754999987,3911.3325754999987,None,,,,,,,,,102,1,-1,2023-02-20_11h57.28.576,Moral_Emotion_Task,2022.2.4,None,
陈钢,陈钢同意飞机起飞。飞机,陈钢没有再要求清理跑道这种行为是：,16,badPsadE,materials/situations/16.PNG,materials/sadreason/16.PNG,materials/badpropose/16.PNG,materials/sadending/16.PNG,0,107,107,107,,,,,,,,,,,,,3911.3325754999987,0.009083999999347725,[-0.030555555555555555],[0.009027777777777777],[1],[0],[0],[2.0690618000007817],3913.4054124999984,0.006235300001208088,[-0.030555555555555555],[0.009027777777777777],[1],[0],[0],[1.225652999999511],3914.636745399999,0.00627859999985958,[],[],[],[],[],[],3916.9325916999987,3919.9339658999997,3922.2295349999986,3922.2295349999986,3922.2295349999986,3922.2295349999986,1.4114583333333335,2.118791200000487,3924.360854499999,3929.366841699999,3929.366841699999,3929.366841699999,3929.366841699999,3929.366841699999,None,3929.366841699999,3929.366841699999,3929.366841699999,3929.366841699999,None,3916.9325916999987,2.2970492000004015,3919.9339658999997,,,3922.2295349999986,,,102,1,-1,2023-02-20_11h57.28.576,Moral_Emotion_Task,2022.2.4,None,
左艳,左艳让孩子坐上缆车。孩子,左艳让孩子坐上缆车这种行为是：,23,badPhappyE,materials/situations/23.PNG,materials/happyreason/23.PNG,materials/badpropose/23.PNG,materials/happyending/23.PNG,0,108,108,108,,,,,,,,,,,,,3929.366841699999,0.006815000000642613,[-0.23194444444444445],[0.06388888888888888],[1],[0],[0],[2.5489541000006284],3931.9202160999994,0.007114199999705306,[-0.23194444444444445],[0.06388888888888888],[1],[0],[0],[1.3550849000002927],3933.2836965999995,0.006589700000404264,[-0.23194444444444445],[0.06388888888888888],[1],[0],[0],[2.2548310999991372],3935.5400339999997,3938.537448199999,3940.8351784999995,3940.8351784999995,3940.8351784999995,3940.8351784999995,2.0416666666666665,2.4825441999983013,3943.3252319999992,3949.335301199999,3949.335301199999,3949.335301199999,3949.335301199999,3949.335301199999,None,3949.335301199999,3949.335301199999,3949.335301199999,3949.335301199999,None,,,3938.537448199999,,,3940.8351784999995,,,102,1,-1,2023-02-20_11h57.28.576,Moral_Emotion_Task,2022.2.4,None,
