name,behave,evaluation,number,cond,situation,reason,propose,ending,trials.thisRepN,trials.thisTrialN,trials.thisN,trials.thisIndex,image.started,key_resp.started,key_resp.keys,key_resp.rt,back.started,key_resp_2.started,key_resp_2.keys,key_resp_2.rt,predictp.started,key_resp_3.started,key_resp_3.keys,key_resp_3.rt,predictp_2.started,key_resp_5.started,key_resp_5.keys,key_resp_5.rt,text.started,predictp_3.started,slider.started,text_2.started,text_3.started,text_4.started,slider.response,slider.rt,text_5.started,text_5.stopped,key_resp_6.started,key_resp_6.stopped,key_resp_6.keys,text.stopped,key_resp_6.rt,participant,session,randomization,date,expName,psychopyVersion,frameRate,
,,,,,,,,,,,,,7.890040800000861,7.890040800000861,space,1.9586178999998083,,,,,,,,,,,,,,,,,,,,,,,,,,,,550583,1,-1,2023-01-10_18h22.35.699,Moral_Emotion_Task,2022.2.4,164.02611951885342,
李明,李明继续开车回家。这个路人,李明继续开车回家这种行为是：,9,badPsadE,materials/situations/9.PNG,materials/sadreason/9.PNG,materials/badpropose/9.PNG,materials/sadending/9.PNG,0,0,0,0,,,,,9.893063899999106,9.893063899999106,space,1.0196826999999757,10.926393999998254,10.926393999998254,space,1.079643799999758,12.023186700000224,12.023186700000224,space,0.6829722000002221,12.726235999998607,15.72466980000172,18.030265500001406,18.030265500001406,18.030265500001406,18.030265500001406,1.046875,3.4373945000006643,21.468003800000588,21.468003800000588,21.468003800000588,21.468003800000588,None,,,550583,1,-1,2023-01-10_18h22.35.699,Moral_Emotion_Task,2022.2.4,164.02611951885342,
刘莎,刘莎把绳索卖给顾客。顾客使用这条绳索攀岩时,刘莎把绳索卖给顾客这种行为：,30,goodPsadE,materials/situations/30.PNG,materials/sadreason/30.PNG,materials/goodpropose/30.PNG,materials/sadending/30.PNG,0,1,1,1,,,,,21.468003800000588,21.468003800000588,space,4.036544100003084,25.519479200000205,25.519479200000205,space,0.8642355000010866,26.401016200001322,26.401016200001322,space,0.9123126999984379,27.326845399999,30.331732399998145,32.631050799998775,32.631050799998775,32.631050799998775,32.631050799998775,2.338541666666667,2.2468550999983563,34.88256099999853,34.88256099999853,34.88256099999853,34.88256099999853,None,,,550583,1,-1,2023-01-10_18h22.35.699,Moral_Emotion_Task,2022.2.4,164.02611951885342,
杨乐,"杨乐跳过这一段铁轨的工作。这段铁轨开始运营,",杨乐跳过这一段铁轨工作这种行为是：,17,badPsadE,materials/situations/17.PNG,materials/sadreason/17.PNG,materials/badpropose/17.PNG,materials/sadending/17.PNG,0,2,2,2,,,,,34.88256099999853,34.88256099999853,space,1.4137850000006438,36.312341100001504,36.312341100001504,space,0.9538392000031308,37.28334959999847,37.28334959999847,space,0.6070849999996426,37.90826179999931,40.912415200000396,43.212665499999275,43.212665499999275,43.212665499999275,43.212665499999275,1,2.079563399998733,45.29664760000014,45.29664760000014,45.29664760000014,45.29664760000014,None,,,550583,1,-1,2023-01-10_18h22.35.699,Moral_Emotion_Task,2022.2.4,164.02611951885342,
杨鹏,杨鹏马上让妻子吃药。他的妻子,杨鹏马上让妻子吃药这种行为是：,10,badPhappyE,materials/situations/10.PNG,materials/happyreason/10.PNG,materials/badpropose/10.PNG,materials/happyending/10.PNG,0,3,3,3,,,,,45.29664760000014,45.29664760000014,space,8.871452400002454,54.18826360000094,54.18826360000094,space,2.795770500000799,56.99630539999998,56.99630539999998,space,2.1373320999991847,59.14820229999896,62.152658499999234,64.45761620000121,64.45761620000121,64.45761620000121,64.45761620000121,1.96875,3.691689499999484,68.15108369999871,68.15108369999871,68.15108369999871,68.15108369999871,None,,,550583,1,-1,2023-01-10_18h22.35.699,Moral_Emotion_Task,2022.2.4,164.02611951885342,
唐静,唐静让妹妹在桌边玩。唐静的妹妹,唐静让妹妹在桌边玩这种行为是：,13,goodPhappyE,materials/situations/13.PNG,materials/happyreason/13.PNG,materials/goodpropose/13.PNG,materials/happyending/13.PNG,0,4,4,4,,,,,68.15108369999871,68.15108369999871,space,3.10159030000068,71.26968639999905,71.26968639999905,space,1.579259699999966,72.87050459999955,72.87050459999955,space,0.6103283000011288,73.49188990000039,76.49819299999945,78.80432049999945,78.80432049999945,78.80432049999945,78.80432049999945,6.015625,2.717768900001829,81.52245050000056,81.52245050000056,81.52245050000056,81.52245050000056,None,,,550583,1,-1,2023-01-10_18h22.35.699,Moral_Emotion_Task,2022.2.4,164.02611951885342,
陈钢,陈钢同意飞机起飞。飞机,陈钢没有再要求清理跑道这种行为是：,16,badPsadE,materials/situations/16.PNG,materials/sadreason/16.PNG,materials/badpropose/16.PNG,materials/sadending/16.PNG,0,5,5,5,,,,,81.52245050000056,81.52245050000056,space,4.041660499999125,85.57845710000038,85.57845710000038,space,0.8319995000019844,86.42703659999825,86.42703659999825,space,0.7916167000003043,87.23095019999892,90.2400658000006,92.54418839999926,92.54418839999926,92.54418839999926,92.54418839999926,1.1510416666666665,1.3409826000024623,93.88550079999914,93.88550079999914,93.88550079999914,93.88550079999914,None,,,550583,1,-1,2023-01-10_18h22.35.699,Moral_Emotion_Task,2022.2.4,164.02611951885342,
赵晨,赵晨鼓励朋友下去游泳。赵晨的朋友在池塘,赵晨鼓励朋友下去游泳这种行为：,25,goodPsadE,materials/situations/25.PNG,materials/sadreason/25.PNG,materials/goodpropose/25.PNG,materials/sadending/25.PNG,0,6,6,6,,,,,93.88550079999914,93.88550079999914,space,1.9334469999994326,95.83898580000096,95.83898580000096,space,0.7882064000004902,96.64581069999986,96.64581069999986,space,0.5006098000012571,97.17061839999951,100.16977029999907,102.4696143000001,102.4696143000001,102.4696143000001,102.4696143000001,2.979166666666667,3.369744100000389,105.84068069999921,105.84068069999921,105.84068069999921,105.84068069999921,None,,,550583,1,-1,2023-01-10_18h22.35.699,Moral_Emotion_Task,2022.2.4,164.02611951885342,
罗兰,罗兰把蘑菇给朋友吃。罗兰的朋友,罗兰把蘑菇送给朋友吃这种行为是：,6,badPhappyE,materials/situations/6.PNG,materials/happyreason/6.PNG,materials/badpropose/6.PNG,materials/happyending/6.PNG,0,7,7,7,,,,,105.84068069999921,105.84068069999921,space,2.477458800000022,108.33516270000109,108.33516270000109,space,0.7312684000025911,109.08115650000036,109.08115650000036,space,0.5959059000015259,109.69213500000114,112.69978080000146,115.00265740000032,115.00265740000032,115.00265740000032,115.00265740000032,2.015625,1.7090280999982497,116.71361080000133,116.71361080000133,116.71361080000133,116.71361080000133,None,,,550583,1,-1,2023-01-10_18h22.35.699,Moral_Emotion_Task,2022.2.4,164.02611951885342,
李贝,李贝把这些肉给孩子们吃。孩子们,李贝把这些肉给孩子们吃这种行为是：,14,goodPsadE,materials/situations/14.PNG,materials/sadreason/14.PNG,materials/goodpropose/14.PNG,materials/sadending/14.PNG,0,8,8,8,,,,,116.71361080000133,116.71361080000133,space,1.1101979999984906,117.83779990000039,117.83779990000039,space,0.6897594000001845,118.54065210000044,118.54065210000044,space,0.7360492000007071,119.2971695999986,122.29698700000154,124.60383219999858,124.60383219999858,124.60383219999858,124.60383219999858,4.46875,2.402481799999805,127.00703019999855,127.00703019999855,127.00703019999855,127.00703019999855,None,,,550583,1,-1,2023-01-10_18h22.35.699,Moral_Emotion_Task,2022.2.4,164.02611951885342,
苏珍,苏珍把学生分到非过敏体质班。这个学生,苏珍把学生分到非过敏体质班这种行为：,28,goodPsadE,materials/situations/28.PNG,materials/sadreason/28.PNG,materials/goodpropose/28.PNG,materials/sadending/28.PNG,0,9,9,9,,,,,127.00703019999855,127.00703019999855,space,3.4126706999995804,130.43368660000124,130.43368660000124,space,0.5371584999993502,130.98535229999834,130.98535229999834,space,0.6131036999977368,131.61418630000117,134.61890140000105,136.92023010000048,136.92023010000048,136.92023010000048,136.92023010000048,3.0,3.325495500001125,140.25047629999972,140.25047629999972,140.25047629999972,140.25047629999972,None,,,550583,1,-1,2023-01-10_18h22.35.699,Moral_Emotion_Task,2022.2.4,164.02611951885342,
赵智,赵智默默离开。挥手那人,赵智默默离开这种行为是：,8,badPsadE,materials/situations/8.PNG,materials/sadreason/8.PNG,materials/badpropose/8.PNG,materials/sadending/8.PNG,0,10,10,10,,,,,140.25047629999972,140.25047629999972,space,1.3710073000002012,141.64430789999824,141.64430789999824,space,0.7720864000002621,142.43199800000002,142.43199800000002,space,0.4894721999989997,142.9409725000005,145.93987520000155,148.24521019999884,148.24521019999884,148.24521019999884,148.24521019999884,1.7135416666666663,1.577149600001576,149.82330979999824,149.82330979999824,149.82330979999824,149.82330979999824,None,,,550583,1,-1,2023-01-10_18h22.35.699,Moral_Emotion_Task,2022.2.4,164.02611951885342,
乔南,乔南点燃熏香。毒气充斥着整座房屋，把害虫都杀光了。邻居的妈妈,乔南点燃熏香这种行为：,35,badPsadE,materials/situations/35.PNG,materials/sadreason/35.PNG,materials/badpropose/35.PNG,materials/sadending/35.PNG,0,11,11,11,,,,,149.82330979999824,149.82330979999824,space,2.057961600003182,151.89680990000124,151.89680990000124,space,0.5522235999997065,152.4617842000007,152.4617842000007,space,1.2869718999972974,153.77432620000036,156.76923689999967,159.0773733999995,159.0773733999995,159.0773733999995,159.0773733999995,1.2864583333333335,1.3227100000003702,160.39799510000012,160.39799510000012,160.39799510000012,160.39799510000012,None,,,550583,1,-1,2023-01-10_18h22.35.699,Moral_Emotion_Task,2022.2.4,164.02611951885342,
陈钢,陈钢同意飞机起飞。飞机,陈钢没有再要求清理跑道这种行为是：,16,badPsadE,materials/situations/16.PNG,materials/sadreason/16.PNG,materials/badpropose/16.PNG,materials/sadending/16.PNG,0,12,12,12,,,,,160.39799510000012,160.39799510000012,space,1.4137134999982663,161.82734870000058,161.82734870000058,space,0.5248118999988947,162.36484030000065,162.36484030000065,space,0.9329607999970904,163.30450660000133,166.3083164999989,168.61222909999924,168.61222909999924,168.61222909999924,168.61222909999924,2.005208333333333,3.3760116000012204,171.99720620000153,171.99720620000153,171.99720620000153,171.99720620000153,None,166.3083164999989,,550583,1,-1,2023-01-10_18h22.35.699,Moral_Emotion_Task,2022.2.4,164.02611951885342,
路明,路明让伙伴爬上树屋。他的朋友,路明让伙伴爬上树屋这种行为：,41,badPhappyE,materials/situations/41.PNG,materials/happyreason/41.PNG,materials/badpropose/41.PNG,materials/happyending/41.PNG,0,13,13,13,,,,,171.99720620000153,171.99720620000153,space,0.7392444999968575,172.75197050000133,172.75197050000133,space,0.6664873999980045,173.4365985000004,173.4365985000004,space,0.6516527000021597,174.10170020000078,177.1079682999989,179.40981349999856,179.40981349999856,179.40981349999856,179.40981349999856,1.9791666666666665,1.6385799000017869,181.0537488000009,181.0537488000009,181.0537488000009,181.0537488000009,None,,,550583,1,-1,2023-01-10_18h22.35.699,Moral_Emotion_Task,2022.2.4,164.02611951885342,
林蕾,林蕾把粉末放进朋友咖啡里。林蕾的朋友喝完咖啡后,林蕾把粉末放进朋友咖啡里这种行为：,1,badPhappyE,materials/situations/1.PNG,materials/happyreason/1.PNG,materials/badpropose/1.PNG,materials/happyending/1.PNG,0,14,14,14,,,,,181.0537488000009,181.0537488000009,space,2.5397482000007585,183.60658049999984,183.60658049999984,space,0.5388633000002301,184.1576810000006,184.1576810000006,space,0.8122024000003876,184.9858146000006,187.98737919999985,190.28891440000007,190.28891440000007,190.28891440000007,190.28891440000007,2.015625,4.125555100003112,194.41813399999955,194.41813399999955,194.41813399999955,194.41813399999955,None,,,550583,1,-1,2023-01-10_18h22.35.699,Moral_Emotion_Task,2022.2.4,164.02611951885342,
何伟,何伟让客人进入实验室。客人,何伟让客人进入实验室这种行为：,2,goodPsadE,materials/situations/2.PNG,materials/sadreason/2.PNG,materials/goodpropose/2.PNG,materials/sadending/2.PNG,0,15,15,15,,,,,194.41813399999955,194.41813399999955,space,3.9727757000000565,198.40773320000153,198.40773320000153,space,1.0061180000011518,199.43068190000122,199.43068190000122,space,0.496412299999065,199.93902040000103,202.94362180000098,205.24819320000097,205.24819320000097,205.24819320000097,205.24819320000097,3.026041666666666,1.2979236999999557,206.54828590000034,206.54828590000034,206.54828590000034,206.54828590000034,None,,,550583,1,-1,2023-01-10_18h22.35.699,Moral_Emotion_Task,2022.2.4,164.02611951885342,
苏珍,苏珍把学生分到非过敏体质班。这个学生,苏珍把学生分到非过敏体质班这种行为：,28,goodPhappyE,materials/situations/28.PNG,materials/happyreason/28.PNG,materials/goodpropose/28.PNG,materials/happyending/28.PNG,0,16,16,16,,,,,206.54828590000034,206.54828590000034,space,1.5580875999985437,208.12622059999921,208.12622059999921,space,1.267907199999172,209.40609699999914,209.40609699999914,space,1.4975838999998814,210.91093059999912,213.92511139999988,216.2180249999983,216.2180249999983,216.2180249999983,216.2180249999983,6.515625,1.3714471999992384,217.59574190000058,217.59574190000058,217.59574190000058,217.59574190000058,None,,,550583,1,-1,2023-01-10_18h22.35.699,Moral_Emotion_Task,2022.2.4,164.02611951885342,
史琴,史琴给朋友系上安全带。她的朋友,史琴给朋友系上安全带这种行为是：,18,badPsadE,materials/situations/18.PNG,materials/sadreason/18.PNG,materials/badpropose/18.PNG,materials/sadending/18.PNG,0,17,17,17,,,,,217.59574190000058,217.59574190000058,space,1.433618099999876,219.0481989,219.0481989,space,1.6209713999996893,220.69153189999997,220.69153189999997,space,1.0297657999981311,221.7325834000003,224.74296930000128,227.03952389999904,227.03952389999904,227.03952389999904,227.03952389999904,1,1.286580399999366,228.33565140000064,228.33565140000064,228.33565140000064,228.33565140000064,None,,,550583,1,-1,2023-01-10_18h22.35.699,Moral_Emotion_Task,2022.2.4,164.02611951885342,
蒋文,蒋文没有管他妹妹。他的妹妹自己开车,蒋文没有管他妹妹这种行为：,32,goodPhappyE,materials/situations/32.PNG,materials/happyreason/32.PNG,materials/goodpropose/32.PNG,materials/happyending/32.PNG,0,18,18,18,,,,,228.33565140000064,228.33565140000064,space,1.0907532999990508,229.44863199999963,229.44863199999963,space,1.4200131999969017,230.89006399999926,230.89006399999926,space,1.4433035999973072,232.35341020000124,235.36556199999904,237.65041900000142,237.65041900000142,237.65041900000142,237.65041900000142,5.953125,1.182357800000318,238.83796509999956,238.83796509999956,238.83796509999956,238.83796509999956,None,,,550583,1,-1,2023-01-10_18h22.35.699,Moral_Emotion_Task,2022.2.4,164.02611951885342,
胡梅,胡梅把新降落伞给顾客。顾客使用这把降落伞时,胡梅把新降落伞给顾客这种行为：,38,goodPhappyE,materials/situations/38.PNG,materials/happyreason/38.PNG,materials/goodpropose/38.PNG,materials/happyending/38.PNG,0,19,19,19,,,,,238.83796509999956,238.83796509999956,space,2.0395470000003115,240.89000440000018,240.89000440000018,space,1.5307087000001047,242.43712740000046,242.43712740000046,space,1.2474643999994441,243.69639870000174,246.7018934000007,249.00855800000136,249.00855800000136,249.00855800000136,249.00855800000136,6.020833333333334,3.2387527999999293,252.23811560000104,,252.23811560000104,,space,,3.5847591000019747,550583,1,-1,2023-01-10_18h22.35.699,Moral_Emotion_Task,2022.2.4,164.02611951885342,
方远,方远只顾自己继续吃饭。那名顾客,方远只顾自己继续吃饭这种行为：,43,badPsadE,materials/situations/43.PNG,materials/sadreason/43.PNG,materials/badpropose/43.PNG,materials/sadending/43.PNG,0,20,20,20,,,,,255.8418731999991,255.8418731999991,space,1.0094844000013836,256.871508799999,256.871508799999,space,0.8516211999994994,257.73926629999914,257.73926629999914,None,,260.0482822999984,263.04559489999883,265.3478847000006,265.3478847000006,265.3478847000006,265.3478847000006,2.708333333333333,3.122006699999474,268.48045880000063,268.48045880000063,268.48045880000063,268.48045880000063,None,,,550583,1,-1,2023-01-10_18h22.35.699,Moral_Emotion_Task,2022.2.4,164.02611951885342,
杨诺,杨诺把火腿加进了朋友的面里。她的朋友,杨诺把火腿加进朋友面里这种行为是：,20,badPhappyE,materials/situations/20.PNG,materials/happyreason/20.PNG,materials/badpropose/20.PNG,materials/happyending/20.PNG,0,21,21,21,,,,,268.48045880000063,268.48045880000063,space,1.3328230000006442,269.8352140999996,269.8352140999996,space,0.6183295999981056,270.4675787999986,270.4675787999986,space,0.9126367000026221,271.3960847999988,274.39763400000083,276.7025007000011,276.7025007000011,276.7025007000011,276.7025007000011,2.0416666666666665,1.3498910999987856,278.05396100000144,278.05396100000144,278.05396100000144,278.05396100000144,None,,,550583,1,-1,2023-01-10_18h22.35.699,Moral_Emotion_Task,2022.2.4,164.02611951885342,
乔南,乔南点燃熏香。毒气充斥着整座房屋，把害虫都杀光了。邻居的妈妈,乔南点燃熏香这种行为：,35,badPhappyE,materials/situations/35.PNG,materials/happyreason/35.PNG,materials/badpropose/35.PNG,materials/happyending/35.PNG,0,22,22,22,,,,,278.05396100000144,278.05396100000144,space,1.3993596000000252,279.47027380000145,279.47027380000145,space,1.1708312000009755,280.65530339999896,280.65530339999896,None,,282.9513388999985,285.9606483999996,288.25971840000057,288.25971840000057,288.25971840000057,288.25971840000057,1.7864583333333335,1.5708884000014223,289.8401191000012,289.8401191000012,289.8401191000012,289.8401191000012,None,,,550583,1,-1,2023-01-10_18h22.35.699,Moral_Emotion_Task,2022.2.4,164.02611951885342,
李贝,李贝把这些肉给孩子们吃。孩子们,李贝把这些肉给孩子们吃这种行为是：,14,badPhappyE,materials/situations/14.PNG,materials/happyreason/14.PNG,materials/badpropose/14.PNG,materials/happyending/14.PNG,0,23,23,23,,,,,289.8401191000012,289.8401191000012,space,0.9727310999987822,290.8346354999994,290.8346354999994,space,0.8088078999971913,291.66069069999867,291.66069069999867,space,1.8164503000007244,293.4849901000016,296.5004749,298.7921387999995,298.7921387999995,298.7921387999995,298.7921387999995,2.546875,2.203528899997764,301.00426629999856,301.00426629999856,301.00426629999856,301.00426629999856,None,,,550583,1,-1,2023-01-10_18h22.35.699,Moral_Emotion_Task,2022.2.4,164.02611951885342,
徐雷,徐雷让女朋友过桥。徐雷的女朋友,徐雷让女朋友过桥这种行为是：,4,goodPsadE,materials/situations/4.PNG,materials/sadreason/4.PNG,materials/goodpropose/4.PNG,materials/sadending/4.PNG,0,24,24,24,,,,,301.00426629999856,301.00426629999856,space,1.787023799999588,302.80404780000026,302.80404780000026,space,0.7844145999988541,303.6059548999983,303.6059548999983,space,0.5599920000022394,304.17852610000045,307.18396479999865,309.48517039999933,309.48517039999933,309.48517039999933,309.48517039999933,2.125,4.722715899999457,314.2141034999986,314.2141034999986,314.2141034999986,314.2141034999986,None,,,550583,1,-1,2023-01-10_18h22.35.699,Moral_Emotion_Task,2022.2.4,164.02611951885342,
胡梅,胡梅把新降落伞给顾客。顾客使用这把降落伞时,胡梅把新降落伞给顾客这种行为：,38,badPsadE,materials/situations/38.PNG,materials/sadreason/38.PNG,materials/badpropose/38.PNG,materials/sadending/38.PNG,0,25,25,25,,,,,314.2141034999986,314.2141034999986,space,2.504982399997971,316.7370513999995,316.7370513999995,space,0.938858400000754,317.68933910000123,317.68933910000123,None,,319.98738700000104,322.99125130000175,325.2946515000003,325.2946515000003,325.2946515000003,325.2946515000003,1,3.633275500000309,328.9444565999984,328.9444565999984,328.9444565999984,328.9444565999984,None,,,550583,1,-1,2023-01-10_18h22.35.699,Moral_Emotion_Task,2022.2.4,164.02611951885342,
左兰,左兰告诉助理不用佩戴防护装置。她的助理在小岛,左兰告诉助理不用戴防护装置这种行为：,34,goodPhappyE,materials/situations/34.PNG,materials/happyreason/34.PNG,materials/goodpropose/34.PNG,materials/happyending/34.PNG,0,26,26,26,,,,,328.9444565999984,328.9444565999984,space,1.7898277000022063,330.7547928999993,330.7547928999993,space,0.684872699999687,331.45610020000095,331.45610020000095,space,0.889834300000075,332.37062700000024,335.3711495999996,337.6755372000007,337.6755372000007,337.6755372000007,337.6755372000007,3.046875,0.9092134000020451,338.5807167999992,338.5807167999992,338.5807167999992,338.5807167999992,None,,,550583,1,-1,2023-01-10_18h22.35.699,Moral_Emotion_Task,2022.2.4,164.02611951885342,
唐静,唐静让妹妹在桌边玩。唐静的妹妹,唐静让妹妹在桌边玩这种行为是：,13,goodPhappyE,materials/situations/13.PNG,materials/happyreason/13.PNG,materials/goodpropose/13.PNG,materials/happyending/13.PNG,0,27,27,27,,,,,338.5807167999992,338.5807167999992,space,1.209717300000193,339.8031556999995,339.8031556999995,space,0.7021815000007336,340.5184971999988,340.5184971999988,space,0.6182883000001311,341.143489099999,344.1473509999996,346.45291,346.45291,346.45291,346.45291,6.005208333333333,1.2004180999974778,347.6610330000003,347.6610330000003,347.6610330000003,347.6610330000003,None,344.1473509999996,,550583,1,-1,2023-01-10_18h22.35.699,Moral_Emotion_Task,2022.2.4,164.02611951885342,
王丽,王丽戴橡胶手套检查病人。病人,王丽戴橡胶手套检查病人这种行为是：,7,badPhappyE,materials/situations/7.PNG,materials/happyreason/7.PNG,materials/badpropose/7.PNG,materials/happyending/7.PNG,0,28,28,28,,,,,347.6610330000003,347.6610330000003,space,1.7423778000011225,349.42173529999855,349.42173529999855,space,0.5569959999993443,349.99712290000025,349.99712290000025,space,0.47725370000262046,350.4977964999998,353.4978875000015,355.79772460000095,355.79772460000095,355.79772460000095,355.79772460000095,2.286458333333333,1.0300294000007852,356.83438340000066,356.83438340000066,356.83438340000066,356.83438340000066,None,,,550583,1,-1,2023-01-10_18h22.35.699,Moral_Emotion_Task,2022.2.4,164.02611951885342,
李浩,李浩不理会侄子胃疼。他的侄子很快就,李浩不理会侄子胃疼这种行为：,31,badPhappyE,materials/situations/31.PNG,materials/happyreason/31.PNG,materials/badpropose/31.PNG,materials/happyending/31.PNG,0,29,29,29,,,,,356.83438340000066,356.83438340000066,space,1.2677532000016072,358.1188919000015,358.1188919000015,space,1.8726534999987052,360.0094734999984,360.0094734999984,space,1.4837604999993346,361.51706209999975,364.51713329999984,366.812601900001,366.812601900001,366.812601900001,366.812601900001,2.640625,1.126293799999985,367.9439267000016,367.9439267000016,367.9439267000016,367.9439267000016,None,,,550583,1,-1,2023-01-10_18h22.35.699,Moral_Emotion_Task,2022.2.4,164.02611951885342,
陈杰,陈杰离开家去见朋友。警报一直在响，房屋,陈杰离开家去见朋友这种行为：,29,badPhappyE,materials/situations/29.PNG,materials/happyreason/29.PNG,materials/badpropose/29.PNG,materials/happyending/29.PNG,0,30,30,30,,,,,367.9439267000016,367.9439267000016,space,2.6016955000013695,370.5667367999995,370.5667367999995,space,1.4091823999988264,371.99082070000077,371.99082070000077,None,,374.3001938000016,377.2931949999984,379.59828149999885,379.59828149999885,379.59828149999885,379.59828149999885,3.411458333333333,5.540770399999019,385.14664809999886,385.14664809999886,385.14664809999886,385.14664809999886,None,,,550583,1,-1,2023-01-10_18h22.35.699,Moral_Emotion_Task,2022.2.4,164.02611951885342,
林蕾,林蕾把粉末放进朋友咖啡里。林蕾的朋友喝完咖啡后,林蕾把粉末放进朋友咖啡里这种行为：,1,badPsadE,materials/situations/1.PNG,materials/sadreason/1.PNG,materials/badpropose/1.PNG,materials/sadending/1.PNG,0,31,31,31,,,,,385.14664809999886,385.14664809999886,space,1.561156799998571,386.7304038000002,386.7304038000002,space,0.9725079999989248,387.71821609999824,387.71821609999824,space,1.2027726999986044,388.93220479999945,391.9455252000007,394.2397224000015,394.2397224000015,394.2397224000015,394.2397224000015,1,0.7812926999977208,395.0278937000003,395.0278937000003,395.0278937000003,395.0278937000003,None,,,550583,1,-1,2023-01-10_18h22.35.699,Moral_Emotion_Task,2022.2.4,164.02611951885342,
马超,马超继续读着报纸。孩子,马超继续读着报纸这种行为：,44,badPhappyE,materials/situations/44.PNG,materials/happyreason/44.PNG,materials/badpropose/44.PNG,materials/happyending/44.PNG,0,32,32,32,,,,,395.0278937000003,395.0278937000003,space,0.9194628999975976,395.95967139999993,395.95967139999993,space,3.6427966999981436,399.61477789999844,399.61477789999844,None,,401.91579439999987,404.91599249999854,407.22388259999934,407.22388259999934,407.22388259999934,407.22388259999934,2.4895833333333335,0.9558154000005743,408.18406790000154,408.18406790000154,408.18406790000154,408.18406790000154,None,,,550583,1,-1,2023-01-10_18h22.35.699,Moral_Emotion_Task,2022.2.4,164.02611951885342,
刘芸,刘芸喂侄女米粉。小女孩吃下米粉后,刘芸喂侄女米粉这种行为：,36,badPsadE,materials/situations/36.PNG,materials/sadreason/36.PNG,materials/badpropose/36.PNG,materials/sadending/36.PNG,0,33,33,33,,,,,408.18406790000154,408.18406790000154,space,2.345164100002876,410.54437269999835,410.54437269999835,space,3.320986400001857,413.88130140000067,413.88130140000067,space,1.260329600001569,415.1534047999994,418.1579763000009,420.45970730000045,420.45970730000045,420.45970730000045,420.45970730000045,1.6093750000000004,1.189567100002023,421.65499270000146,421.65499270000146,421.65499270000146,421.65499270000146,None,,,550583,1,-1,2023-01-10_18h22.35.699,Moral_Emotion_Task,2022.2.4,164.02611951885342,
苏珍,苏珍把学生分到非过敏体质班。这个学生,苏珍把学生分到非过敏体质班这种行为：,28,goodPhappyE,materials/situations/28.PNG,materials/happyreason/28.PNG,materials/goodpropose/28.PNG,materials/happyending/28.PNG,0,34,34,34,,,,,421.65499270000146,421.65499270000146,space,1.867532600001141,423.5349016,423.5349016,space,0.4139377000028617,423.9667469999986,423.9667469999986,space,1.1488671000006434,425.12427279999974,428.13338120000117,430.43185150000136,430.43185150000136,430.43185150000136,430.43185150000136,6.0625,1.3203315999999177,431.7598187000003,431.7598187000003,431.7598187000003,431.7598187000003,None,,,550583,1,-1,2023-01-10_18h22.35.699,Moral_Emotion_Task,2022.2.4,164.02611951885342,
杨乐,"杨乐跳过这一段铁轨的工作。这段铁轨开始运营,",杨乐跳过这一段铁轨工作这种行为是：,17,goodPsadE,materials/situations/17.PNG,materials/sadreason/17.PNG,materials/goodpropose/17.PNG,materials/sadending/17.PNG,0,35,35,35,,,,,431.7598187000003,431.7598187000003,space,1.0018715000005614,432.7763335999989,432.7763335999989,space,1.0031028000012157,433.79641059999994,433.79641059999994,space,1.1213295999987167,434.92370110000047,437.9281015000015,440.23321569999825,440.23321569999825,440.23321569999825,440.23321569999825,2.515625,3.0741697999983444,443.31534399999873,443.31534399999873,443.31534399999873,443.31534399999873,None,437.9281015000015,,550583,1,-1,2023-01-10_18h22.35.699,Moral_Emotion_Task,2022.2.4,164.02611951885342,
徐雷,徐雷让女朋友过桥。徐雷的女朋友,徐雷让女朋友过桥这种行为是：,4,goodPhappyE,materials/situations/4.PNG,materials/happyreason/4.PNG,materials/goodpropose/4.PNG,materials/happyending/4.PNG,0,36,36,36,,,,,443.31534399999873,443.31534399999873,space,0.8060662999996566,444.1348265000015,444.1348265000015,space,0.9904937999999675,445.14073369999824,445.14073369999824,space,0.6087167999976373,445.7608919999984,448.7695786000004,451.06962439999916,451.06962439999916,451.06962439999916,451.06962439999916,6.916666666666667,2.377309100000275,453.45360730000175,453.45360730000175,453.45360730000175,453.45360730000175,None,,,550583,1,-1,2023-01-10_18h22.35.699,Moral_Emotion_Task,2022.2.4,164.02611951885342,
孙丽,孙丽没有提醒老人。老人走过去，,孙丽没有提醒老人这种行为：,46,goodPsadE,materials/situations/46.PNG,materials/sadreason/46.PNG,materials/goodpropose/46.PNG,materials/sadending/46.PNG,0,37,37,37,,,,,453.45360730000175,453.45360730000175,space,1.60334199999852,455.07517200000075,455.07517200000075,space,1.7225184999988414,456.8116177000011,456.8116177000011,space,1.9656070999990334,458.78946540000106,461.7997398000007,464.0973097999995,464.0973097999995,464.0973097999995,464.0973097999995,2.9583333333333335,1.214039700000285,465.31411300000036,465.31411300000036,465.31411300000036,465.31411300000036,None,,,550583,1,-1,2023-01-10_18h22.35.699,Moral_Emotion_Task,2022.2.4,164.02611951885342,
张克,张克邀请朋友吃饼干。他的朋友,张克邀请他的朋友吃饼干这种行为是：,22,goodPhappyE,materials/situations/22.PNG,materials/happyreason/22.PNG,materials/goodpropose/22.PNG,materials/happyending/22.PNG,0,38,38,38,,,,,465.31411300000036,465.31411300000036,space,2.6138805000009597,467.94666660000075,467.94666660000075,space,2.607476000001043,470.57199160000164,470.57199160000164,space,0.7852730999984487,471.37113650000174,474.3829575999989,476.6783421,476.6783421,476.6783421,476.6783421,6.510416666666666,2.066279899998335,478.74909639999896,478.74909639999896,478.74909639999896,478.74909639999896,None,,,550583,1,-1,2023-01-10_18h22.35.699,Moral_Emotion_Task,2022.2.4,164.02611951885342,
徐娜,徐娜叫她的朋友到冰屋里玩。她的朋友,徐娜叫朋友到冰屋里玩这种行为是：,19,badPsadE,materials/situations/19.PNG,materials/sadreason/19.PNG,materials/badpropose/19.PNG,materials/sadending/19.PNG,0,39,39,39,,,,,478.74909639999896,478.74909639999896,space,1.8021990000015649,480.57036399999924,480.57036399999924,space,0.5595718000004126,481.15224930000113,481.15224930000113,space,0.4092495999975654,481.5752054000004,484.58779660000073,486.88391319999937,486.88391319999937,486.88391319999937,486.88391319999937,1,1.0313726999993378,487.91210769999816,,487.91210769999816,,space,,7.311537899997347,550583,1,-1,2023-01-10_18h22.35.699,Moral_Emotion_Task,2022.2.4,164.02611951885342,
韩珍,韩珍悄悄走开。小孩,韩珍悄悄走开这种行为是：,5,badPsadE,materials/situations/5.PNG,materials/sadreason/5.PNG,materials/badpropose/5.PNG,materials/sadending/5.PNG,0,40,40,40,,,,,495.23602759999994,495.23602759999994,space,1.0858703999983845,496.3356257999985,496.3356257999985,space,1.02592839999852,497.3779299000016,497.3779299000016,None,,499.6764742999985,502.68531559999974,504.9848020999998,504.9848020999998,504.9848020999998,504.9848020999998,1,2.8788817999993626,507.8693940000012,507.8693940000012,507.8693940000012,507.8693940000012,None,,,550583,1,-1,2023-01-10_18h22.35.699,Moral_Emotion_Task,2022.2.4,164.02611951885342,
赵智,赵智默默离开。挥手那人,赵智默默离开这种行为是：,8,goodPhappyE,materials/situations/8.PNG,materials/happyreason/8.PNG,materials/goodpropose/8.PNG,materials/happyending/8.PNG,0,41,41,41,,,,,507.8693940000012,507.8693940000012,space,0.7692855999994208,508.65812599999845,508.65812599999845,space,0.9639175000011164,509.63947140000164,509.63947140000164,space,0.47619549999944866,510.1236925999983,513.1329656999987,515.4319542999983,515.4319542999983,515.4319542999983,515.4319542999983,5.921875,2.0904155999996874,517.5290672999981,517.5290672999981,517.5290672999981,517.5290672999981,None,,,550583,1,-1,2023-01-10_18h22.35.699,Moral_Emotion_Task,2022.2.4,164.02611951885342,
李明,李明继续开车回家。这个路人,李明继续开车回家这种行为是：,9,goodPsadE,materials/situations/9.PNG,materials/sadreason/9.PNG,materials/goodpropose/9.PNG,materials/sadending/9.PNG,0,42,42,42,,,,,517.5290672999981,517.5290672999981,space,1.2435805999994045,518.7887110999982,518.7887110999982,space,0.5382523000007495,519.3401238000006,519.3401238000006,space,0.6099829000013415,519.9583439999988,522.9632971999999,525.2672047999986,525.2672047999986,525.2672047999986,525.2672047999986,4.880208333333333,2.2432062000007136,527.5181429000004,527.5181429000004,527.5181429000004,527.5181429000004,None,522.9632971999999,,550583,1,-1,2023-01-10_18h22.35.699,Moral_Emotion_Task,2022.2.4,164.02611951885342,
舒玲,舒玲把车借给同学。舒玲的同学,舒玲把自行车借给同学这种行为是：,12,goodPhappyE,materials/situations/12.PNG,materials/happyreason/12.PNG,materials/goodpropose/12.PNG,materials/happyending/12.PNG,0,43,43,43,,,,,527.5181429000004,527.5181429000004,space,1.8758665999994264,529.4123008999995,529.4123008999995,space,0.5941123999982665,530.0245342000017,530.0245342000017,space,0.475411699997494,530.5145424000002,533.5219529999995,535.8219989999998,535.8219989999998,535.8219989999998,535.8219989999998,7,0.8917999999976018,536.7180455999987,536.7180455999987,536.7180455999987,536.7180455999987,None,,,550583,1,-1,2023-01-10_18h22.35.699,Moral_Emotion_Task,2022.2.4,164.02611951885342,
马慧,马慧没有阻止堂兄走进厨房。她的堂兄,马慧没有阻止堂兄进厨房这种行为是：,21,goodPsadE,materials/situations/21.PNG,materials/sadreason/21.PNG,materials/goodpropose/21.PNG,materials/sadending/21.PNG,0,44,44,44,,,,,536.7180455999987,536.7180455999987,space,1.696031999999832,538.4362892999998,538.4362892999998,space,1.0258085999994364,539.4747064000003,539.4747064000003,space,1.7554650999991281,541.2439182999988,544.2524733999999,546.5491785999984,546.5491785999984,546.5491785999984,546.5491785999984,3.3489583333333335,2.770441100001335,549.3246293999982,549.3246293999982,549.3246293999982,549.3246293999982,None,,,550583,1,-1,2023-01-10_18h22.35.699,Moral_Emotion_Task,2022.2.4,164.02611951885342,
孙丽,孙丽没有提醒老人。老人走过去，,孙丽没有提醒老人这种行为：,46,goodPsadE,materials/situations/46.PNG,materials/sadreason/46.PNG,materials/goodpropose/46.PNG,materials/sadending/46.PNG,0,45,45,45,,,,,549.3246293999982,549.3246293999982,space,1.1197104999992007,550.4606166000012,550.4606166000012,space,0.7006226000012248,551.1754168000007,551.1754168000007,space,0.6475551000003179,551.8318962000012,554.8398766999999,557.1399928999999,557.1399928999999,557.1399928999999,557.1399928999999,2.6458333333333335,2.3882182000015746,559.5360708000007,559.5360708000007,559.5360708000007,559.5360708000007,None,,,550583,1,-1,2023-01-10_18h22.35.699,Moral_Emotion_Task,2022.2.4,164.02611951885342,
杨诺,杨诺把火腿加进了朋友的面里。她的朋友,杨诺把火腿加进朋友面里这种行为是：,20,badPhappyE,materials/situations/20.PNG,materials/happyreason/20.PNG,materials/badpropose/20.PNG,materials/happyending/20.PNG,0,46,46,46,,,,,559.5360708000007,559.5360708000007,space,2.651095199998963,562.1998609000002,562.1998609000002,space,0.7117865000000165,562.9274186000002,562.9274186000002,space,0.6781945000002452,563.614841999999,566.6215282999983,568.9212993000001,568.9212993000001,568.9212993000001,568.9212993000001,1,0.8237563999973645,569.752423599999,569.752423599999,569.752423599999,569.752423599999,None,,,550583,1,-1,2023-01-10_18h22.35.699,Moral_Emotion_Task,2022.2.4,164.02611951885342,
程峰,程峰没有提醒客户。客户继续使用这台电脑,程峰没有提醒客户这种行为：,48,badPhappyE,materials/situations/48.PNG,materials/happyreason/48.PNG,materials/badpropose/48.PNG,materials/happyending/48.PNG,0,47,47,47,,,,,569.752423599999,569.752423599999,space,2.8077530000009574,572.5748305000016,572.5748305000016,space,0.5407702000011341,573.1275209999985,573.1275209999985,space,0.786687300002086,573.9257881999984,576.9320355999989,579.231292299999,579.231292299999,579.231292299999,579.231292299999,1,0.9057608000002801,580.1453857999986,580.1453857999986,580.1453857999986,580.1453857999986,None,,,550583,1,-1,2023-01-10_18h22.35.699,Moral_Emotion_Task,2022.2.4,164.02611951885342,
左兰,左兰告诉助理不用佩戴防护装置。她的助理在小岛,左兰告诉助理不用戴防护装置这种行为：,34,badPhappyE,materials/situations/34.PNG,materials/happyreason/34.PNG,materials/badpropose/34.PNG,materials/happyending/34.PNG,0,48,48,48,,,,,580.1453857999986,580.1453857999986,space,1.856763100000535,582.0177709999989,582.0177709999989,space,0.5147030000007362,582.5500257999993,582.5500257999993,space,0.4372462999999698,582.9947176999995,586.0038692000016,588.3046881000009,588.3046881000009,588.3046881000009,588.3046881000009,2.671875,0.6755597999981546,588.9857219000005,588.9857219000005,588.9857219000005,588.9857219000005,None,,,550583,1,-1,2023-01-10_18h22.35.699,Moral_Emotion_Task,2022.2.4,164.02611951885342,
韩珍,韩珍悄悄走开。小孩,韩珍悄悄走开这种行为是：,5,badPsadE,materials/situations/5.PNG,materials/sadreason/5.PNG,materials/badpropose/5.PNG,materials/sadending/5.PNG,0,49,49,49,,,,,588.9857219000005,588.9857219000005,space,1.0331487000003108,590.0362924000001,590.0362924000001,space,1.779595200001495,591.8307510000013,591.8307510000013,None,,594.1268419000007,597.1310439000008,599.4355834000016,599.4355834000016,599.4355834000016,599.4355834000016,2.973958333333333,2.062188600000809,601.5056753999997,601.5056753999997,601.5056753999997,601.5056753999997,None,,,550583,1,-1,2023-01-10_18h22.35.699,Moral_Emotion_Task,2022.2.4,164.02611951885342,
乔南,乔南点燃熏香。毒气充斥着整座房屋，把害虫都杀光了。邻居的妈妈,乔南点燃熏香这种行为：,35,goodPsadE,materials/situations/35.PNG,materials/sadreason/35.PNG,materials/goodpropose/35.PNG,materials/sadending/35.PNG,0,50,50,50,,,,,601.5056753999997,601.5056753999997,space,1.605423000000883,603.1265228000011,603.1265228000011,space,0.480881399998907,603.6233317000006,603.6233317000006,space,0.4490350000014587,604.0798972999983,607.0883538000016,609.3866624000002,609.3866624000002,609.3866624000002,609.3866624000002,2.2291666666666665,2.3491508000006434,611.7449094000003,611.7449094000003,611.7449094000003,611.7449094000003,None,,,550583,1,-1,2023-01-10_18h22.35.699,Moral_Emotion_Task,2022.2.4,164.02611951885342,
路明,路明让伙伴爬上树屋。他的朋友,路明让伙伴爬上树屋这种行为：,41,goodPhappyE,materials/situations/41.PNG,materials/happyreason/41.PNG,materials/goodpropose/41.PNG,materials/happyending/41.PNG,0,51,51,51,,,,,611.7449094000003,611.7449094000003,space,1.181065699998726,612.9396750000014,612.9396750000014,space,0.6753312000000733,613.6293218999999,613.6293218999999,space,0.6764311000006273,614.3160090999991,617.3237096999983,619.6240395999994,619.6240395999994,619.6240395999994,619.6240395999994,2.015625,1.4250532999976713,621.0566231999983,621.0566231999983,621.0566231999983,621.0566231999983,None,,,550583,1,-1,2023-01-10_18h22.35.699,Moral_Emotion_Task,2022.2.4,164.02611951885342,
郑宇,郑宇没有阻止朋友开枪。子弹射中了,郑宇没有阻止朋友开枪这种行为：,26,badPsadE,materials/situations/26.PNG,materials/sadreason/26.PNG,materials/badpropose/26.PNG,materials/sadending/26.PNG,0,52,52,52,,,,,621.0566231999983,621.0566231999983,space,1.7234663000017463,622.7927320999988,622.7927320999988,space,0.4762479999990319,623.2837258,623.2837258,space,0.5516161000014108,623.8475475000014,626.8511653999994,629.1528102999982,629.1528102999982,629.1528102999982,629.1528102999982,1.65625,1.2247354999999516,630.3831218000014,630.3831218000014,630.3831218000014,630.3831218000014,None,,,550583,1,-1,2023-01-10_18h22.35.699,Moral_Emotion_Task,2022.2.4,164.02611951885342,
方远,方远只顾自己继续吃饭。那名顾客,方远只顾自己继续吃饭这种行为：,43,badPhappyE,materials/situations/43.PNG,materials/happyreason/43.PNG,materials/badpropose/43.PNG,materials/happyending/43.PNG,0,53,53,53,,,,,630.3831218000014,630.3831218000014,space,0.639874399999826,631.0416302999984,631.0416302999984,space,1.056499199999962,632.1141505999985,632.1141505999985,space,1.3097904000023846,633.431959900001,636.4442603999996,638.7373856000013,638.7373856000013,638.7373856000013,638.7373856000013,2.614583333333333,1.2132197999999335,639.9587721999997,639.9587721999997,639.9587721999997,639.9587721999997,None,,,550583,1,-1,2023-01-10_18h22.35.699,Moral_Emotion_Task,2022.2.4,164.02611951885342,
严浩,严浩没有让乘客系好安全带。飞船开动后，这名乘客,严浩没有让乘客系好安全带这种行为：,45,badPsadE,materials/situations/45.PNG,materials/sadreason/45.PNG,materials/badpropose/45.PNG,materials/sadending/45.PNG,0,54,54,54,,,,,639.9587721999997,639.9587721999997,space,2.222035300001153,642.1927858999989,642.1927858999989,space,0.9773385000007693,643.1862666000015,643.1862666000015,space,1.392954799997824,644.5941598999998,647.5972039000007,649.9005011000008,649.9005011000008,649.9005011000008,649.9005011000008,1.4895833333333335,1.0129415999981575,650.9159531000005,650.9159531000005,650.9159531000005,650.9159531000005,None,,,550583,1,-1,2023-01-10_18h22.35.699,Moral_Emotion_Task,2022.2.4,164.02611951885342,
叶蓉,叶蓉把小狗卖给女顾客。小狗,叶蓉把小狗卖给女顾客这种行为：,39,goodPhappyE,materials/situations/39.PNG,materials/happyreason/39.PNG,materials/goodpropose/39.PNG,materials/happyending/39.PNG,0,55,55,55,,,,,650.9159531000005,650.9159531000005,space,2.0686468000021705,652.9981894000011,652.9981894000011,space,0.5291676000015286,653.5493018000016,653.5493018000016,space,0.7320338999998057,654.2944687000017,657.3048387000017,659.6009950000007,659.6009950000007,659.6009950000007,659.6009950000007,4.979166666666666,5.471258900000976,665.0773885999988,665.0773885999988,665.0773885999988,665.0773885999988,None,,,550583,1,-1,2023-01-10_18h22.35.699,Moral_Emotion_Task,2022.2.4,164.02611951885342,
周燕,周燕没有提醒这些青年。青年们滑下坡，,周燕没有提醒这些青年这种行为：,47,badPsadE,materials/situations/47.PNG,materials/sadreason/47.PNG,materials/badpropose/47.PNG,materials/sadending/47.PNG,0,56,56,56,,,,,665.0773885999988,665.0773885999988,space,1.3125184000018635,666.4040936999991,666.4040936999991,space,0.6628922000018065,667.0844037999996,667.0844037999996,space,0.521706899999117,667.6212023000007,670.6265344999993,672.9300562999997,672.9300562999997,672.9300562999997,672.9300562999997,2.21875,1.0306633000000147,673.9641806,673.9641806,673.9641806,673.9641806,None,,,550583,1,-1,2023-01-10_18h22.35.699,Moral_Emotion_Task,2022.2.4,164.02611951885342,
杨乐,"杨乐跳过这一段铁轨的工作。这段铁轨开始运营,",杨乐跳过这一段铁轨工作这种行为是：,17,goodPhappyE,materials/situations/17.PNG,materials/happyreason/17.PNG,materials/goodpropose/17.PNG,materials/happyending/17.PNG,0,57,57,57,,,,,673.9641806,673.9641806,space,2.3273449999978766,676.3135839999995,676.3135839999995,space,0.8313333999976749,677.1609166000017,677.1609166000017,space,0.6788622999993095,677.8471151999984,680.8620980000014,683.1532178000016,683.1532178000016,683.1532178000016,683.1532178000016,6.328125,2.9512761999976647,686.1136599999991,686.1136599999991,686.1136599999991,686.1136599999991,None,,,550583,1,-1,2023-01-10_18h22.35.699,Moral_Emotion_Task,2022.2.4,164.02611951885342,
蒋文,蒋文没有管他妹妹。他的妹妹自己开车,蒋文没有管他妹妹这种行为：,32,goodPhappyE,materials/situations/32.PNG,materials/happyreason/32.PNG,materials/goodpropose/32.PNG,materials/happyending/32.PNG,0,58,58,58,,,,,686.1136599999991,686.1136599999991,space,1.2419856000014988,687.3677604000004,687.3677604000004,space,2.0626083000024664,689.4456548000016,689.4456548000016,space,1.1799592999996094,690.6352153000007,693.6436061999993,695.9426945000014,695.9426945000014,695.9426945000014,695.9426945000014,5.307291666666666,1.3638952000001154,697.3140018000013,697.3140018000013,697.3140018000013,697.3140018000013,None,,,550583,1,-1,2023-01-10_18h22.35.699,Moral_Emotion_Task,2022.2.4,164.02611951885342,
徐雷,徐雷让女朋友过桥。徐雷的女朋友,徐雷让女朋友过桥这种行为是：,4,goodPsadE,materials/situations/4.PNG,materials/sadreason/4.PNG,materials/goodpropose/4.PNG,materials/sadending/4.PNG,0,59,59,59,,,,,697.3140018000013,697.3140018000013,space,0.9836121000007552,698.3123317999998,698.3123317999998,space,1.1003380000001926,699.4276409000013,699.4276409000013,space,0.755236099998001,700.1923759999991,703.2008883999988,705.5022414999985,705.5022414999985,705.5022414999985,705.5022414999985,2.65625,4.288516199998412,709.7893365999989,,709.7893365999989,,space,,1.6583028999993985,550583,1,-1,2023-01-10_18h22.35.699,Moral_Emotion_Task,2022.2.4,164.02611951885342,
王齐,王齐向同事推荐金枪鱼。他的一个同事吃了这道菜后，,王齐向同事推荐金枪鱼这种行为：,33,goodPsadE,materials/situations/33.PNG,materials/sadreason/33.PNG,materials/goodpropose/33.PNG,materials/sadending/33.PNG,0,60,60,60,,,,,711.4629195999987,711.4629195999987,space,1.1118578999994497,712.5917559000009,712.5917559000009,space,1.1223781000007875,713.7309289000004,713.7309289000004,space,0.5017654999974184,714.2483453999994,717.2489029999997,719.5538683000013,719.5538683000013,719.5538683000013,719.5538683000013,2.864583333333334,1.927348000001075,721.4840891999993,721.4840891999993,721.4840891999993,721.4840891999993,None,,,550583,1,-1,2023-01-10_18h22.35.699,Moral_Emotion_Task,2022.2.4,164.02611951885342,
杨鹏,杨鹏马上让妻子吃药。他的妻子,杨鹏马上让妻子吃药这种行为是：,10,badPsadE,materials/situations/10.PNG,materials/sadreason/10.PNG,materials/badpropose/10.PNG,materials/sadending/10.PNG,0,61,61,61,,,,,721.4840891999993,721.4840891999993,space,1.8122105000002193,723.3177424999994,723.3177424999994,space,1.87663739999698,725.2090247000015,725.2090247000015,space,0.8902945000008913,726.1071774999982,729.1223721999995,731.4148993000017,731.4148993000017,731.4148993000017,731.4148993000017,1.5937499999999996,1.5283290999977908,732.9518887999984,732.9518887999984,732.9518887999984,732.9518887999984,None,,,550583,1,-1,2023-01-10_18h22.35.699,Moral_Emotion_Task,2022.2.4,164.02611951885342,
陈杰,陈杰离开家去见朋友。警报一直在响，房屋,陈杰离开家去见朋友这种行为：,29,goodPhappyE,materials/situations/29.PNG,materials/happyreason/29.PNG,materials/goodpropose/29.PNG,materials/happyending/29.PNG,0,62,62,62,,,,,732.9518887999984,732.9518887999984,space,1.1518914000007499,734.1177553000016,734.1177553000016,space,1.9040939999977127,736.0358793999985,736.0358793999985,None,,738.330950399999,741.3357901999989,743.6409191999992,743.6409191999992,743.6409191999992,743.6409191999992,2.760416666666667,4.0762007999983325,747.723936800001,747.723936800001,747.723936800001,747.723936800001,None,,,550583,1,-1,2023-01-10_18h22.35.699,Moral_Emotion_Task,2022.2.4,164.02611951885342,
赵智,赵智默默离开。挥手那人,赵智默默离开这种行为是：,8,goodPsadE,materials/situations/8.PNG,materials/sadreason/8.PNG,materials/goodpropose/8.PNG,materials/sadending/8.PNG,0,63,63,63,,,,,747.723936800001,747.723936800001,space,2.4096132000013313,750.1477876999998,750.1477876999998,space,0.575672899998608,750.7356881000014,750.7356881000014,space,0.6946434000019508,751.4409863000001,754.4491135999997,756.7493170000016,756.7493170000016,756.7493170000016,756.7493170000016,1.963541666666667,1.124481900002138,757.8800883000004,757.8800883000004,757.8800883000004,757.8800883000004,None,,,550583,1,-1,2023-01-10_18h22.35.699,Moral_Emotion_Task,2022.2.4,164.02611951885342,
唐巧,唐巧让男孩走进冒烟的房子。男孩,唐巧让男孩走进冒烟房子这种行为是：,24,goodPsadE,materials/situations/24.PNG,materials/sadreason/24.PNG,materials/goodpropose/24.PNG,materials/sadending/24.PNG,0,64,64,64,,,,,757.8800883000004,757.8800883000004,space,1.5214637999997649,759.4141740000014,759.4141740000014,space,2.941708700000163,762.3773837000008,762.3773837000008,None,,764.6741623000016,767.673240600001,769.9824122999999,769.9824122999999,769.9824122999999,769.9824122999999,2.338541666666667,3.8208097999995516,773.8083217999992,773.8083217999992,773.8083217999992,773.8083217999992,None,,,550583,1,-1,2023-01-10_18h22.35.699,Moral_Emotion_Task,2022.2.4,164.02611951885342,
陈强,陈强挥手让堂兄去捡球。堂兄跑去捡球，,陈强挥手让堂兄去捡球这种行为：,37,badPhappyE,materials/situations/37.PNG,materials/happyreason/37.PNG,materials/badpropose/37.PNG,materials/happyending/37.PNG,0,65,65,65,,,,,773.8083217999992,773.8083217999992,space,1.6772487999987788,775.499192700001,775.499192700001,space,1.3617723000024853,776.875123400001,776.875123400001,None,,779.1767021000014,782.2018930999984,784.4824568000004,784.4824568000004,784.4824568000004,784.4824568000004,2.1145833333333335,0.9477167000004556,785.4359654,785.4359654,785.4359654,785.4359654,None,,,550583,1,-1,2023-01-10_18h22.35.699,Moral_Emotion_Task,2022.2.4,164.02611951885342,
徐雷,徐雷让女朋友过桥。徐雷的女朋友,徐雷让女朋友过桥这种行为是：,4,badPsadE,materials/situations/4.PNG,materials/sadreason/4.PNG,materials/badpropose/4.PNG,materials/sadending/4.PNG,0,66,66,66,,,,,785.4359654,785.4359654,space,1.7356490999991365,787.1840268000014,787.1840268000014,space,0.7347144999985176,787.9345872999984,787.9345872999984,space,1.2382465000009688,789.1854596000012,792.1935709999998,794.4939559000013,794.4939559000013,794.4939559000013,794.4939559000013,1,0.6359378000015568,795.1363175000006,795.1363175000006,795.1363175000006,795.1363175000006,None,,,550583,1,-1,2023-01-10_18h22.35.699,Moral_Emotion_Task,2022.2.4,164.02611951885342,
方远,方远只顾自己继续吃饭。那名顾客,方远只顾自己继续吃饭这种行为：,43,badPsadE,materials/situations/43.PNG,materials/sadreason/43.PNG,materials/badpropose/43.PNG,materials/sadending/43.PNG,0,67,67,67,,,,,795.1363175000006,795.1363175000006,space,1.0763971000014863,796.2261005,796.2261005,space,0.486113099999784,796.7286735000016,796.7286735000016,space,0.9879765000005136,797.7239053999983,800.7331946999984,803.0322702999983,803.0322702999983,803.0322702999983,803.0322702999983,1.921875,1.790205799999967,804.8325919000017,804.8325919000017,804.8325919000017,804.8325919000017,None,,,550583,1,-1,2023-01-10_18h22.35.699,Moral_Emotion_Task,2022.2.4,164.02611951885342,
程峰,程峰没有提醒客户。客户继续使用这台电脑,程峰没有提醒客户这种行为：,48,goodPsadE,materials/situations/48.PNG,materials/sadreason/48.PNG,materials/goodpropose/48.PNG,materials/sadending/48.PNG,0,68,68,68,,,,,804.8325919000017,804.8325919000017,space,0.7094203999986348,805.5604300999985,805.5604300999985,space,0.8194722000007459,806.4018628999984,806.4018628999984,space,0.6952363000018522,807.1060313000016,810.1208686999998,812.4139396999999,812.4139396999999,812.4139396999999,812.4139396999999,4.963541666666667,1.2003748000024643,813.622602899999,813.622602899999,813.622602899999,813.622602899999,None,,,550583,1,-1,2023-01-10_18h22.35.699,Moral_Emotion_Task,2022.2.4,164.02611951885342,
刘芸,刘芸喂侄女米粉。小女孩吃下米粉后,刘芸喂侄女米粉这种行为：,36,goodPhappyE,materials/situations/36.PNG,materials/happyreason/36.PNG,materials/goodpropose/36.PNG,materials/happyending/36.PNG,0,69,69,69,,,,,813.622602899999,813.622602899999,space,1.920649499999854,815.5596359999981,815.5596359999981,space,0.8507253999996465,816.4313207000014,816.4313207000014,space,1.2458998000001884,817.6887300000017,820.7017057000012,822.9945939999998,822.9945939999998,822.9945939999998,822.9945939999998,5.484375,1.015122999997402,824.0191073999995,824.0191073999995,824.0191073999995,824.0191073999995,None,,,550583,1,-1,2023-01-10_18h22.35.699,Moral_Emotion_Task,2022.2.4,164.02611951885342,
徐娜,徐娜叫她的朋友到冰屋里玩。她的朋友,徐娜叫朋友到冰屋里玩这种行为是：,19,badPsadE,materials/situations/19.PNG,materials/sadreason/19.PNG,materials/badpropose/19.PNG,materials/sadending/19.PNG,0,70,70,70,,,,,824.0191073999995,824.0191073999995,space,2.3185061999975005,826.3520556000003,826.3520556000003,space,1.2907814000027429,827.6559742999998,827.6559742999998,space,0.6331745999996201,828.3013098999982,831.3083729999998,833.6088750999988,833.6088750999988,833.6088750999988,833.6088750999988,2.4947916666666665,7.563256400000682,841.1796299000016,841.1796299000016,841.1796299000016,841.1796299000016,None,,,550583,1,-1,2023-01-10_18h22.35.699,Moral_Emotion_Task,2022.2.4,164.02611951885342,
陈强,陈强挥手让堂兄去捡球。堂兄跑去捡球，,陈强挥手让堂兄去捡球这种行为：,37,badPsadE,materials/situations/37.PNG,materials/sadreason/37.PNG,materials/badpropose/37.PNG,materials/sadending/37.PNG,0,71,71,71,,,,,841.1796299000016,841.1796299000016,space,1.984820800000307,843.1780944999991,843.1780944999991,space,1.3569925000010699,844.5478068999982,844.5478068999982,space,0.9399918000017351,845.5000198999987,848.5083613999996,850.8095810000013,850.8095810000013,850.8095810000013,850.8095810000013,1.3958333333333333,1.1469085999997333,851.968837299999,851.968837299999,851.968837299999,851.968837299999,None,,,550583,1,-1,2023-01-10_18h22.35.699,Moral_Emotion_Task,2022.2.4,164.02611951885342,
孙泽,孙泽买了一袋菠菜给奶奶。他奶奶在晚饭上吃下了这些菠菜后,孙泽买了一袋菠菜给奶奶这种行为：,27,badPsadE,materials/situations/27.PNG,materials/sadreason/27.PNG,materials/badpropose/27.PNG,materials/sadending/27.PNG,0,72,72,72,,,,,851.968837299999,851.968837299999,space,2.8037411000004795,854.7899055999987,854.7899055999987,space,1.589603199998237,856.395440100001,856.395440100001,None,,858.7078459000004,861.701866899999,864.0069409999996,864.0069409999996,864.0069409999996,864.0069409999996,2.1822916666666665,1.8467021999967983,865.8562258999991,865.8562258999991,865.8562258999991,865.8562258999991,None,,,550583,1,-1,2023-01-10_18h22.35.699,Moral_Emotion_Task,2022.2.4,164.02611951885342,
罗格,罗格没有管他的朋友。他的朋友,罗格没有管他的朋友这种行为是：,15,goodPhappyE,materials/situations/15.PNG,materials/happyreason/15.PNG,materials/goodpropose/15.PNG,materials/happyending/15.PNG,0,73,73,73,,,,,865.8562258999991,865.8562258999991,space,1.7678580000028887,867.6445999999996,867.6445999999996,space,0.7505696999978682,868.4069864000012,868.4069864000012,space,0.7804534999995667,869.1984765999987,872.2107636000001,874.5047603999992,874.5047603999992,874.5047603999992,874.5047603999992,5.916666666666666,1.4025052999968466,875.9138224999988,875.9138224999988,875.9138224999988,875.9138224999988,None,,,550583,1,-1,2023-01-10_18h22.35.699,Moral_Emotion_Task,2022.2.4,164.02611951885342,
郑宇,郑宇没有阻止朋友开枪。子弹射中了,郑宇没有阻止朋友开枪这种行为：,26,badPhappyE,materials/situations/26.PNG,materials/happyreason/26.PNG,materials/badpropose/26.PNG,materials/happyending/26.PNG,0,74,74,74,,,,,875.9138224999988,875.9138224999988,space,1.6390116999973543,877.5704933999987,877.5704933999987,space,0.642310000002908,878.2238695999986,878.2238695999986,space,1.600942599998234,879.8321337000016,882.8467681000002,885.1407490999991,885.1407490999991,885.1407490999991,885.1407490999991,2.526041666666667,1.1230063000002701,886.2705170000008,886.2705170000008,886.2705170000008,886.2705170000008,None,,,550583,1,-1,2023-01-10_18h22.35.699,Moral_Emotion_Task,2022.2.4,164.02611951885342,
赵晨,赵晨鼓励朋友下去游泳。赵晨的朋友在池塘,赵晨鼓励朋友下去游泳这种行为：,25,goodPhappyE,materials/situations/25.PNG,materials/happyreason/25.PNG,materials/goodpropose/25.PNG,materials/happyending/25.PNG,0,75,75,75,,,,,886.2705170000008,886.2705170000008,space,9.613011800000095,895.9023405000007,895.9023405000007,space,0.5385857000001124,896.4553020999992,896.4553020999992,space,0.4311392999989039,896.8987548000005,899.9122716999991,902.204091399999,902.204091399999,902.204091399999,902.204091399999,5.020833333333333,1.8192944999973406,904.0325957999994,904.0325957999994,904.0325957999994,904.0325957999994,None,,,550583,1,-1,2023-01-10_18h22.35.699,Moral_Emotion_Task,2022.2.4,164.02611951885342,
严浩,严浩没有让乘客系好安全带。飞船开动后，这名乘客,严浩没有让乘客系好安全带这种行为：,45,goodPsadE,materials/situations/45.PNG,materials/sadreason/45.PNG,materials/goodpropose/45.PNG,materials/sadending/45.PNG,0,76,76,76,,,,,904.0325957999994,904.0325957999994,space,2.7126645000025746,906.7574874999991,906.7574874999991,space,0.8974037999978464,907.6731007999988,907.6731007999988,None,,909.9663067000001,912.9856794000007,915.2748042999992,915.2748042999992,915.2748042999992,915.2748042999992,1.8333333333333337,1.200840400000743,916.481352499999,916.481352499999,916.481352499999,916.481352499999,None,,,550583,1,-1,2023-01-10_18h22.35.699,Moral_Emotion_Task,2022.2.4,164.02611951885342,
乔南,乔南点燃熏香。毒气充斥着整座房屋，把害虫都杀光了。邻居的妈妈,乔南点燃熏香这种行为：,35,badPhappyE,materials/situations/35.PNG,materials/happyreason/35.PNG,materials/badpropose/35.PNG,materials/happyending/35.PNG,0,77,77,77,,,,,916.481352499999,916.481352499999,None,,926.4842237999983,926.4842237999983,space,2.5770493000018178,929.0764635999985,929.0764635999985,space,1.954830500002572,931.0452920999996,934.0522744000009,936.3502035999991,936.3502035999991,936.3502035999991,936.3502035999991,2.375,1.2946050000027753,937.6532621000006,937.6532621000006,937.6532621000006,937.6532621000006,None,,,550583,1,-1,2023-01-10_18h22.35.699,Moral_Emotion_Task,2022.2.4,164.02611951885342,
李浩,李浩不理会侄子胃疼。他的侄子很快就,李浩不理会侄子胃疼这种行为：,31,badPsadE,materials/situations/31.PNG,materials/sadreason/31.PNG,materials/badpropose/31.PNG,materials/sadending/31.PNG,0,78,78,78,,,,,937.6532621000006,937.6532621000006,space,1.4969509999973525,939.169651799999,939.169651799999,space,1.5503084000010858,940.7321769000009,940.7321769000009,space,1.0182032000011532,941.7583666999999,944.7679912999993,947.0659071000009,947.0659071000009,947.0659071000009,947.0659071000009,1.4322916666666665,1.7799382999983209,948.8536715000009,948.8536715000009,948.8536715000009,948.8536715000009,None,,,550583,1,-1,2023-01-10_18h22.35.699,Moral_Emotion_Task,2022.2.4,164.02611951885342,
孙丽,孙丽没有提醒老人。老人走过去，,孙丽没有提醒老人这种行为：,46,badPhappyE,materials/situations/46.PNG,materials/happyreason/46.PNG,materials/badpropose/46.PNG,materials/happyending/46.PNG,0,79,79,79,,,,,948.8536715000009,948.8536715000009,space,1.987844600000244,950.8538383000014,950.8538383000014,space,0.09310840000034659,950.9683675000015,950.9683675000015,space,2.0153524999986985,952.9955642999994,956.0036741000004,958.3021550999983,958.3021550999983,958.3021550999983,958.3021550999983,2.9322916666666665,1.2570906000000832,959.5586301000003,,959.5586301000003,,space,,2.4519269000011263,550583,1,-1,2023-01-10_18h22.35.699,Moral_Emotion_Task,2022.2.4,164.02611951885342,
刘晓,刘晓把芝麻放进菜里。客人,刘晓把芝麻放进菜里这种行为是：,11,goodPsadE,materials/situations/11.PNG,materials/sadreason/11.PNG,materials/goodpropose/11.PNG,materials/sadending/11.PNG,0,80,80,80,,,,,962.0283931999984,962.0283931999984,space,2.466694599999755,964.5152368999989,964.5152368999989,space,0.8956889000000956,965.4252622999993,965.4252622999993,space,1.880399599998782,967.3250884000008,970.3306129999983,972.6262578999995,972.6262578999995,972.6262578999995,972.6262578999995,2.5,2.0780228000003262,974.7089898999984,974.7089898999984,974.7089898999984,974.7089898999984,None,,,550583,1,-1,2023-01-10_18h22.35.699,Moral_Emotion_Task,2022.2.4,164.02611951885342,
方远,方远只顾自己继续吃饭。那名顾客,方远只顾自己继续吃饭这种行为：,43,goodPhappyE,materials/situations/43.PNG,materials/happyreason/43.PNG,materials/goodpropose/43.PNG,materials/happyending/43.PNG,0,81,81,81,,,,,974.7089898999984,974.7089898999984,space,3.6688372999997227,978.3929274000002,978.3929274000002,space,0.6869398999988334,979.1018837999982,979.1018837999982,space,0.8414759999977832,979.9530100999982,982.9606031000003,985.259804199999,985.259804199999,985.259804199999,985.259804199999,5.432291666666667,2.6867745999988983,987.9551901000013,987.9551901000013,987.9551901000013,987.9551901000013,None,,,550583,1,-1,2023-01-10_18h22.35.699,Moral_Emotion_Task,2022.2.4,164.02611951885342,
王丽,王丽戴橡胶手套检查病人。病人,王丽戴橡胶手套检查病人这种行为是：,7,badPhappyE,materials/situations/7.PNG,materials/happyreason/7.PNG,materials/badpropose/7.PNG,materials/happyending/7.PNG,0,82,82,82,,,,,987.9551901000013,987.9551901000013,escape,2.6516688000010618,990.6222898999986,990.6222898999986,escape,1.01451409999936,991.6527807999992,991.6527807999992,None,,993.9494860999985,996.954108599999,999.2592984000003,999.2592984000003,999.2592984000003,999.2592984000003,3.125,1.6113568000000669,1000.8777621000008,1000.8777621000008,1000.8777621000008,1000.8777621000008,None,,,550583,1,-1,2023-01-10_18h22.35.699,Moral_Emotion_Task,2022.2.4,164.02611951885342,
李明,李明继续开车回家。这个路人,李明继续开车回家这种行为是：,9,goodPsadE,materials/situations/9.PNG,materials/sadreason/9.PNG,materials/goodpropose/9.PNG,materials/sadending/9.PNG,0,83,83,83,,,,,1000.8777621000008,1000.8777621000008,space,3.1671758000011323,1004.0584046000004,1004.0584046000004,space,1.8044671000025119,1005.8776880000005,1005.8776880000005,space,0.9406830000007176,1006.8284072999995,1009.8327473999998,1012.1362810999999,1012.1362810999999,1012.1362810999999,1012.1362810999999,2.5416666666666665,1.4112332000004244,1013.5564290000002,1013.5564290000002,1013.5564290000002,1013.5564290000002,None,1009.8327473999998,,550583,1,-1,2023-01-10_18h22.35.699,Moral_Emotion_Task,2022.2.4,164.02611951885342,
,,,,,,,,,,,,,,,,,1013.5564290000002,1013.5564290000002,escape,3.3279331999983697,1016.9004032000012,1016.9004032000012,escape,0.2787175000012212,1017.1914238999998,1017.1914238999998,escape,0.3299215999977605,1017.5339601000014,,,,,,,,,,,,,,,,,,,,,,
